word,colour,stim_resp,correct_resp,trials.thisRepN,trials.thisTrialN,trials.thisN,trials.thisIndex,thisRow.t,notes,ins.started,text_2.started,ins.stopped,trial.started,fixation.started,text.started,key_resp.started,fixation.stopped,trial.stopped,key_resp.keys,key_resp.corr,key_resp.rt,key_resp.duration,text.stopped,participant,session,date,expName,psychopyVersion,frameRate,expStart,
,,,,,,,,,,0.004520699998465716,0.0222009999997681,1.005721599998651,,,,,,,,,,,,233364,001,2024-09-13_14h00.00.208,friday16,2024.1.5,None,2024-09-13 14h00.10.081908 +0530,
YELLOW,green,I,g,0,0,0,5,1.05454490000011,,,,,1.018344199999774,1.05454490000011,1.5056050999992294,1.5056050999992294,1.5556023999997706,4.762334799999735,g,1,3.248258999999962,None,,233364,001,2024-09-13_14h00.00.208,friday16,2024.1.5,None,2024-09-13 14h00.10.081908 +0530,
GREEN,green,I,g,0,1,1,7,4.787787899998875,,,,,4.766741399998864,4.787787899998875,5.27431069999875,5.27431069999875,5.290969899999254,6.2070966999999655,g,1,0.9294795999994676,None,,233364,001,2024-09-13_14h00.00.208,friday16,2024.1.5,None,2024-09-13 14h00.10.081908 +0530,
BLUE,red,I,r,0,2,2,2,6.2379658999998355,,,,,6.20988159999979,6.2379658999998355,6.724895299999844,6.724895299999844,6.740913799998452,7.757286199999726,r,1,1.0242591000005632,None,,233364,001,2024-09-13_14h00.00.208,friday16,2024.1.5,None,2024-09-13 14h00.10.081908 +0530,
GREEN,yellow,I,y,0,3,3,6,7.772659599999315,,,,,7.760131499999261,7.772659599999315,8.27246119999836,8.27246119999836,8.27246119999836,9.273516599998402,y,1,0.9956256000004942,None,,233364,001,2024-09-13_14h00.00.208,friday16,2024.1.5,None,2024-09-13 14h00.10.081908 +0530,
RED,red,C,r,0,4,4,0,9.288848199999848,,,,,9.276220299998386,9.288848199999848,9.789202099998874,9.789202099998874,9.789202099998874,11.173855600000024,r,1,1.3668939000017417,None,,233364,001,2024-09-13_14h00.00.208,friday16,2024.1.5,None,2024-09-13 14h00.10.081908 +0530,
RED,blue,I,b,0,5,5,1,11.18950439999935,,,,,11.176546999999118,11.18950439999935,11.688928799998394,11.688928799998394,11.688928799998394,13.357069699999556,b,1,1.659373599999526,None,,233364,001,2024-09-13_14h00.00.208,friday16,2024.1.5,None,2024-09-13 14h00.10.081908 +0530,
YELLOW,yellow,C,y,0,6,6,4,13.372272299999167,,,,,13.359754399998565,13.372272299999167,13.872413299999607,13.872413299999607,13.872413299999607,14.657694899999115,y,1,0.7838714999998047,None,,233364,001,2024-09-13_14h00.00.208,friday16,2024.1.5,None,2024-09-13 14h00.10.081908 +0530,
BLUE,blue,C,b,0,7,7,3,14.672465599998759,,,,,14.660399599999437,14.672465599998759,15.172371299999213,15.172371299999213,15.172371299999213,16.040318299999853,b,1,0.856980399999884,None,,233364,001,2024-09-13_14h00.00.208,friday16,2024.1.5,None,2024-09-13 14h00.10.081908 +0530,
BLUE,red,I,r,1,0,8,2,16.05577749999975,,,,,16.04306759999963,16.05577749999975,16.555787999999666,16.555787999999666,16.555787999999666,18.139574799999536,r,1,1.576991600000838,None,,233364,001,2024-09-13_14h00.00.208,friday16,2024.1.5,None,2024-09-13 14h00.10.081908 +0530,
YELLOW,yellow,C,y,1,1,9,4,18.155594299998484,,,,,18.141437999998743,18.155594299998484,18.655871999999363,18.655871999999363,18.655871999999363,20.50735469999927,y,1,1.8441335999996227,None,,233364,001,2024-09-13_14h00.00.208,friday16,2024.1.5,None,2024-09-13 14h00.10.081908 +0530,
BLUE,blue,C,b,1,2,10,3,20.523065099998348,,,,,20.510080599999128,20.523065099998348,21.023593299998538,21.023593299998538,21.023593299998538,22.523771699999998,b,1,1.486951599999884,None,,233364,001,2024-09-13_14h00.00.208,friday16,2024.1.5,None,2024-09-13 14h00.10.081908 +0530,
RED,blue,I,b,1,3,11,1,22.538892299999134,,,,,22.526010499999757,22.538892299999134,23.039129499999035,23.039129499999035,23.039129499999035,23.990886199999295,r,0,0.9401713000006566,None,,233364,001,2024-09-13_14h00.00.208,friday16,2024.1.5,None,2024-09-13 14h00.10.081908 +0530,
YELLOW,green,I,g,1,4,12,5,24.006168699999762,,,,,23.993556199999148,24.006168699999762,24.505662099998517,24.505662099998517,24.505662099998517,26.257716099999016,g,1,1.7369382999986556,None,,233364,001,2024-09-13_14h00.00.208,friday16,2024.1.5,None,2024-09-13 14h00.10.081908 +0530,
RED,red,C,r,1,5,13,0,26.272667100000035,,,,,26.260445599999002,26.272667100000035,26.77241999999933,26.77241999999933,26.77241999999933,27.5570031999996,r,1,0.7775164000013319,None,,233364,001,2024-09-13_14h00.00.208,friday16,2024.1.5,None,2024-09-13 14h00.10.081908 +0530,
GREEN,yellow,I,y,1,6,14,6,27.572284099998797,,,,,27.559721799998442,27.572284099998797,28.07223669999985,28.07223669999985,28.07223669999985,29.141292799999064,y,1,1.0660522999987734,None,,233364,001,2024-09-13_14h00.00.208,friday16,2024.1.5,None,2024-09-13 14h00.10.081908 +0530,
GREEN,green,I,g,1,7,15,7,29.154850599999918,,,,,29.144042299998546,29.154850599999918,29.656201699999656,29.656201699999656,29.656201699999656,30.50705569999991,g,1,0.8350305000003573,None,,233364,001,2024-09-13_14h00.00.208,friday16,2024.1.5,None,2024-09-13 14h00.10.081908 +0530,
BLUE,red,I,r,2,0,16,2,30.522669299998597,,,,,30.51039429999946,30.522669299998597,31.022528799998327,31.022528799998327,31.022528799998327,31.840305899999294,r,1,0.8121921999991173,None,,233364,001,2024-09-13_14h00.00.208,friday16,2024.1.5,None,2024-09-13 14h00.10.081908 +0530,
RED,red,C,r,2,1,17,0,31.855710299998464,,,,,31.84300609999991,31.855710299998464,32.355450799999744,32.355450799999744,32.355450799999744,32.94084279999879,r,1,0.5723333999994793,None,,233364,001,2024-09-13_14h00.00.208,friday16,2024.1.5,None,2024-09-13 14h00.10.081908 +0530,
YELLOW,green,I,g,2,2,18,5,32.95563319999928,,,,,32.94360769999912,32.95563319999928,33.455956299998434,33.455956299998434,33.455956299998434,34.28996149999875,g,1,0.8307198000002245,None,,233364,001,2024-09-13_14h00.00.208,friday16,2024.1.5,None,2024-09-13 14h00.10.081908 +0530,
GREEN,yellow,I,y,2,3,19,6,34.30517229999896,,,,,34.291908899998816,34.30517229999896,34.80564579999918,34.80564579999918,34.80564579999918,35.97345150000001,y,1,1.1595359000002645,None,,233364,001,2024-09-13_14h00.00.208,friday16,2024.1.5,None,2024-09-13 14h00.10.081908 +0530,
RED,blue,I,b,2,4,20,1,35.98922319999838,,,,,35.97590249999848,35.98922319999838,36.489192099999855,36.489192099999855,36.489192099999855,37.27387069999895,b,1,0.7811832000006689,None,,233364,001,2024-09-13_14h00.00.208,friday16,2024.1.5,None,2024-09-13 14h00.10.081908 +0530,
YELLOW,yellow,C,y,2,5,21,4,37.28902149999885,,,,,37.27659399999902,37.28902149999885,37.78930609999952,37.78930609999952,37.78930609999952,38.657466299999214,y,1,0.8518788000001223,None,,233364,001,2024-09-13_14h00.00.208,friday16,2024.1.5,None,2024-09-13 14h00.10.081908 +0530,
GREEN,green,I,g,2,6,22,7,38.672853699999905,,,,,38.66021049999836,38.672853699999905,39.17284599999948,39.17284599999948,39.17284599999948,40.29310909999913,g,1,1.1077924000001076,None,,233364,001,2024-09-13_14h00.00.208,friday16,2024.1.5,None,2024-09-13 14h00.10.081908 +0530,
BLUE,blue,C,b,2,7,23,3,40.32137799999873,,,,,40.296569199999794,40.32137799999873,40.80621339999925,40.80621339999925,40.82233839999935,41.67412599999989,b,1,0.8546384000001126,None,,233364,001,2024-09-13_14h00.00.208,friday16,2024.1.5,None,2024-09-13 14h00.10.081908 +0530,
BLUE,blue,C,b,3,0,24,3,41.68917709999914,,,,,41.67685669999992,41.68917709999914,42.188938999999664,42.188938999999664,42.188938999999664,42.839480799999365,b,1,0.6348854999996547,None,,233364,001,2024-09-13_14h00.00.208,friday16,2024.1.5,None,2024-09-13 14h00.10.081908 +0530,
YELLOW,green,I,g,3,1,25,5,42.8554269999986,,,,,42.841324999999415,42.8554269999986,43.34134199999971,43.34134199999971,43.35733949999849,44.19074079999882,g,1,0.836126799998965,None,,233364,001,2024-09-13_14h00.00.208,friday16,2024.1.5,None,2024-09-13 14h00.10.081908 +0530,
GREEN,green,I,g,3,2,26,7,44.2060066999984,,,,,44.19353379999848,44.2060066999984,44.7056982999984,44.7056982999984,44.7056982999984,45.24174859999948,g,1,0.5292906000013318,None,,233364,001,2024-09-13_14h00.00.208,friday16,2024.1.5,None,2024-09-13 14h00.10.081908 +0530,
RED,red,C,r,3,3,27,0,45.25561379999999,,,,,45.24451129999943,45.25561379999999,45.75589389999914,45.75589389999914,45.75589389999914,46.474191399998745,r,1,0.7015645999999833,None,,233364,001,2024-09-13_14h00.00.208,friday16,2024.1.5,None,2024-09-13 14h00.10.081908 +0530,
YELLOW,yellow,C,y,3,4,28,4,46.489164399999936,,,,,46.47708689999854,46.489164399999936,46.989653599999656,46.989653599999656,46.989653599999656,48.07405729999846,y,1,1.079937799999243,None,,233364,001,2024-09-13_14h00.00.208,friday16,2024.1.5,None,2024-09-13 14h00.10.081908 +0530,
RED,blue,I,b,3,5,29,1,48.08901179999884,,,,,48.07655469999918,48.08901179999884,48.58901379999952,48.58901379999952,48.58901379999952,49.623884099999486,r,0,1.0201651000006677,None,,233364,001,2024-09-13_14h00.00.208,friday16,2024.1.5,None,2024-09-13 14h00.10.081908 +0530,
GREEN,yellow,I,y,3,6,30,6,49.639189099998475,,,,,49.62678419999975,49.639189099998475,50.139449700000114,50.139449700000114,50.139449700000114,52.19088079999892,y,1,2.037143300000025,None,,233364,001,2024-09-13_14h00.00.208,friday16,2024.1.5,None,2024-09-13 14h00.10.081908 +0530,
BLUE,red,I,r,3,7,31,2,52.20564629999899,,,,,52.193606399998316,52.20564629999899,52.70486979999987,52.70486979999987,52.70486979999987,53.790943799998786,r,1,1.0746811000008165,None,,233364,001,2024-09-13_14h00.00.208,friday16,2024.1.5,None,2024-09-13 14h00.10.081908 +0530,
RED,red,C,r,4,0,32,0,53.805459399998654,,,,,53.79363349999949,53.805459399998654,54.30588149999858,54.30588149999858,54.30588149999858,54.82434699999976,r,1,0.506034300000465,None,,233364,001,2024-09-13_14h00.00.208,friday16,2024.1.5,None,2024-09-13 14h00.10.081908 +0530,
BLUE,blue,C,b,4,1,33,3,54.83903979999923,,,,,54.827202399999805,54.83903979999923,55.339405599999736,55.339405599999736,55.339405599999736,56.19092119999914,b,1,0.837579299999561,None,,233364,001,2024-09-13_14h00.00.208,friday16,2024.1.5,None,2024-09-13 14h00.10.081908 +0530,
GREEN,yellow,I,y,4,2,34,6,56.20561229999839,,,,,56.19416109999838,56.20561229999839,56.70619209999859,56.70619209999859,56.70619209999859,58.19104679999873,y,1,1.4667506999994657,None,,233364,001,2024-09-13_14h00.00.208,friday16,2024.1.5,None,2024-09-13 14h00.10.081908 +0530,
YELLOW,yellow,C,y,4,3,35,4,58.20578749999913,,,,,58.1937754999999,58.20578749999913,58.70568429999912,58.70568429999912,58.70568429999912,59.22434350000003,y,1,0.5105046999997285,None,,233364,001,2024-09-13_14h00.00.208,friday16,2024.1.5,None,2024-09-13 14h00.10.081908 +0530,
RED,blue,I,b,4,4,36,1,59.2392007999988,,,,,59.22705339999993,59.2392007999988,59.73920049999833,59.73920049999833,59.73920049999833,61.59133109999857,b,1,1.850159400000848,None,,233364,001,2024-09-13_14h00.00.208,friday16,2024.1.5,None,2024-09-13 14h00.10.081908 +0530,
GREEN,green,I,g,4,5,37,7,61.60589639999853,,,,,61.594062199999826,61.60589639999853,62.10585339999852,62.10585339999852,62.10585339999852,63.15736459999971,g,1,1.0403067999995983,None,,233364,001,2024-09-13_14h00.00.208,friday16,2024.1.5,None,2024-09-13 14h00.10.081908 +0530,
BLUE,red,I,r,4,6,38,2,63.172403399999894,,,,,63.16015829999924,63.172403399999894,63.672617599999285,63.672617599999285,63.672617599999285,64.5073883999994,r,1,0.8299495000010211,None,,233364,001,2024-09-13_14h00.00.208,friday16,2024.1.5,None,2024-09-13 14h00.10.081908 +0530,
YELLOW,green,I,g,4,7,39,5,64.52295989999948,,,,,64.51013539999985,64.52295989999948,65.02261599999838,65.02261599999838,65.02261599999838,65.89067109999996,y,0,0.8565559999988182,None,,233364,001,2024-09-13_14h00.00.208,friday16,2024.1.5,None,2024-09-13 14h00.10.081908 +0530,
GREEN,yellow,I,y,5,0,40,6,65.90567609999925,,,,,65.89339629999995,65.90567609999925,66.4057114999996,66.4057114999996,66.4057114999996,67.84080469999935,y,1,1.425989400000617,None,,233364,001,2024-09-13_14h00.00.208,friday16,2024.1.5,None,2024-09-13 14h00.10.081908 +0530,
BLUE,blue,C,b,5,1,41,3,67.85655699999916,,,,,67.84360789999846,67.85655699999916,68.35586979999971,68.35586979999971,68.35586979999971,69.2906910999991,b,1,0.9207478000007541,None,,233364,001,2024-09-13_14h00.00.208,friday16,2024.1.5,None,2024-09-13 14h00.10.081908 +0530,
YELLOW,green,I,g,5,2,42,5,69.30582569999933,,,,,69.29349169999841,69.30582569999933,69.80580639999971,69.80580639999971,69.80580639999971,70.74078329999975,g,1,0.9194967000003089,None,,233364,001,2024-09-13_14h00.00.208,friday16,2024.1.5,None,2024-09-13 14h00.10.081908 +0530,
YELLOW,yellow,C,y,5,3,43,4,70.75597479999851,,,,,70.74343210000006,70.75597479999851,71.25572939999984,71.25572939999984,71.25572939999984,71.9577507999984,y,1,0.7000107999992906,None,,233364,001,2024-09-13_14h00.00.208,friday16,2024.1.5,None,2024-09-13 14h00.10.081908 +0530,
RED,red,C,r,5,4,44,0,71.97251159999905,,,,,71.96041129999867,71.97251159999905,72.47267609999835,72.47267609999835,72.47267609999835,73.05763299999853,r,1,0.582901400000992,None,,233364,001,2024-09-13_14h00.00.208,friday16,2024.1.5,None,2024-09-13 14h00.10.081908 +0530,
RED,blue,I,b,5,5,45,1,73.07272659999944,,,,,73.06006959999831,73.07272659999944,73.57261039999867,73.57261039999867,73.57261039999867,74.49102589999893,b,1,0.9157137999991392,None,,233364,001,2024-09-13_14h00.00.208,friday16,2024.1.5,None,2024-09-13 14h00.10.081908 +0530,
GREEN,green,I,g,5,6,46,7,74.5057186999984,,,,,74.4937288000001,74.5057186999984,75.00582659999964,75.00582659999964,75.00582659999964,75.85748559999956,g,1,0.8498609999987821,None,,233364,001,2024-09-13_14h00.00.208,friday16,2024.1.5,None,2024-09-13 14h00.10.081908 +0530,
BLUE,red,I,r,5,7,47,2,75.87238149999939,,,,,75.86019779999879,75.87238149999939,76.37249519999932,76.37249519999932,76.37249519999932,77.37490929999876,r,1,0.9919792000000598,None,,233364,001,2024-09-13_14h00.00.208,friday16,2024.1.5,None,2024-09-13 14h00.10.081908 +0530,
BLUE,blue,C,b,6,0,48,3,77.38981449999847,,,,,77.37861179999891,77.38981449999847,77.88910570000007,77.88910570000007,77.88910570000007,78.62416080000003,b,1,0.7258769000000029,None,,233364,001,2024-09-13_14h00.00.208,friday16,2024.1.5,None,2024-09-13 14h00.10.081908 +0530,
YELLOW,yellow,C,y,6,1,49,4,78.63898799999879,,,,,78.62699099999918,78.63898799999879,79.1390123000001,79.1390123000001,79.1390123000001,80.00740009999936,y,1,0.8542180000004009,None,,233364,001,2024-09-13_14h00.00.208,friday16,2024.1.5,None,2024-09-13 14h00.10.081908 +0530,
GREEN,green,I,g,6,2,50,7,80.02246500000001,,,,,80.01012199999968,80.02246500000001,80.52331149999918,80.52331149999918,80.52331149999918,81.19094549999863,g,1,0.6515846000002057,None,,233364,001,2024-09-13_14h00.00.208,friday16,2024.1.5,None,2024-09-13 14h00.10.081908 +0530,
BLUE,red,I,r,6,3,51,2,81.20594239999991,,,,,81.19379870000012,81.20594239999991,81.7061536000001,81.7061536000001,81.7061536000001,82.94057789999897,r,1,1.2274856999993062,None,,233364,001,2024-09-13_14h00.00.208,friday16,2024.1.5,None,2024-09-13 14h00.10.081908 +0530,
GREEN,yellow,I,y,6,4,52,6,82.95539589999862,,,,,82.94326959999853,82.95539589999862,83.45622379999986,83.45622379999986,83.45622379999986,85.02402529999927,y,1,1.5557324000001245,None,,233364,001,2024-09-13_14h00.00.208,friday16,2024.1.5,None,2024-09-13 14h00.10.081908 +0530,
YELLOW,green,I,g,6,5,53,5,85.03922239999883,,,,,85.02691929999855,85.03922239999883,85.53926919999867,85.53926919999867,85.53926919999867,86.99097249999977,g,1,1.4487017999999807,None,,233364,001,2024-09-13_14h00.00.208,friday16,2024.1.5,None,2024-09-13 14h00.10.081908 +0530,
RED,red,C,r,6,6,54,0,87.00600029999987,,,,,86.99367089999942,87.00600029999987,87.50625169999876,87.50625169999876,87.50625169999876,88.16102219999993,r,1,0.6397624999990512,None,,233364,001,2024-09-13_14h00.00.208,friday16,2024.1.5,None,2024-09-13 14h00.10.081908 +0530,
RED,blue,I,b,6,7,55,1,88.18864049999866,,,,,88.1661370999991,88.18864049999866,88.67271729999993,88.67271729999993,88.6891040999999,89.52732259999902,b,1,0.8400217999987944,None,,233364,001,2024-09-13_14h00.00.208,friday16,2024.1.5,None,2024-09-13 14h00.10.081908 +0530,
BLUE,red,I,r,7,0,56,2,89.55587169999853,,,,,89.5324561999987,89.55587169999853,90.04152419999991,90.04152419999991,90.05897879999975,92.3563567000001,r,1,2.3068142000010994,None,,233364,001,2024-09-13_14h00.00.208,friday16,2024.1.5,None,2024-09-13 14h00.10.081908 +0530,
YELLOW,yellow,C,y,7,1,57,4,92.37193249999837,,,,,92.35833419999835,92.37193249999837,92.87177840000004,92.87177840000004,92.87177840000004,93.58952229999886,y,1,0.7076484999997774,None,,233364,001,2024-09-13_14h00.00.208,friday16,2024.1.5,None,2024-09-13 14h00.10.081908 +0530,
YELLOW,green,I,g,7,2,58,5,93.60527819999879,,,,,93.59147339999981,93.60527819999879,94.09239229999912,94.09239229999912,94.10907589999988,94.94472129999849,g,1,0.8455444000010175,None,,233364,001,2024-09-13_14h00.00.208,friday16,2024.1.5,None,2024-09-13 14h00.10.081908 +0530,
BLUE,blue,C,b,7,3,59,3,94.97263019999991,,,,,94.95153449999998,94.97263019999991,95.45774329999949,95.45774329999949,95.47491399999853,96.22454859999925,b,1,0.7495999000002485,None,,233364,001,2024-09-13_14h00.00.208,friday16,2024.1.5,None,2024-09-13 14h00.10.081908 +0530,
GREEN,green,I,g,7,4,60,7,96.2392977999989,,,,,96.22748479999973,96.2392977999989,96.73908869999832,96.73908869999832,96.73908869999832,98.27401800000007,g,1,1.5303789999998116,None,,233364,001,2024-09-13_14h00.00.208,friday16,2024.1.5,None,2024-09-13 14h00.10.081908 +0530,
RED,blue,I,b,7,5,61,1,98.28925269999854,,,,,98.27660189999915,98.28925269999854,98.78913879999891,98.78913879999891,98.78913879999891,99.60776299999998,b,1,0.8111752000004344,None,,233364,001,2024-09-13_14h00.00.208,friday16,2024.1.5,None,2024-09-13 14h00.10.081908 +0530,
GREEN,yellow,I,y,7,6,62,6,99.62246459999915,,,,,99.61049589999857,99.62246459999915,100.12233669999841,100.12233669999841,100.12233669999841,101.52461419999963,y,1,1.3988274000003003,None,,233364,001,2024-09-13_14h00.00.208,friday16,2024.1.5,None,2024-09-13 14h00.10.081908 +0530,
RED,red,C,r,7,7,63,0,101.5393084999996,,,,,101.52731409999978,101.5393084999996,102.03943949999848,102.03943949999848,102.03943949999848,102.65708989999985,r,1,0.6080323000005592,None,,233364,001,2024-09-13_14h00.00.208,friday16,2024.1.5,None,2024-09-13 14h00.10.081908 +0530,
GREEN,green,I,g,8,0,64,7,102.67205789999934,,,,,102.65953269999955,102.67205789999934,103.17278549999901,103.17278549999901,103.17278549999901,104.07372039999973,g,1,0.8896693000006053,None,,233364,001,2024-09-13_14h00.00.208,friday16,2024.1.5,None,2024-09-13 14h00.10.081908 +0530,
YELLOW,yellow,C,y,8,1,65,4,104.08950639999966,,,,,104.0761720999999,104.08950639999966,104.58925719999934,104.58925719999934,104.58925719999934,105.2740204999991,y,1,0.6685994999988907,None,,233364,001,2024-09-13_14h00.00.208,friday16,2024.1.5,None,2024-09-13 14h00.10.081908 +0530,
BLUE,blue,C,b,8,2,66,3,105.30490839999948,,,,,105.27939839999999,105.30490839999948,105.7897041999986,105.7897041999986,105.80666009999914,106.49078849999933,b,1,0.6930244999985007,None,,233364,001,2024-09-13_14h00.00.208,friday16,2024.1.5,None,2024-09-13 14h00.10.081908 +0530,
BLUE,red,I,r,8,3,67,2,106.50573509999958,,,,,106.49355309999919,106.50573509999958,107.00593789999948,107.00593789999948,107.00593789999948,108.77414229999886,r,1,1.7642403000008926,None,,233364,001,2024-09-13_14h00.00.208,friday16,2024.1.5,None,2024-09-13 14h00.10.081908 +0530,
RED,red,C,r,8,4,68,0,108.78954199999862,,,,,108.77716340000006,108.78954199999862,109.28920649999964,109.28920649999964,109.28920649999964,109.84098149999954,r,1,0.5481262999983301,None,,233364,001,2024-09-13_14h00.00.208,friday16,2024.1.5,None,2024-09-13 14h00.10.081908 +0530,
GREEN,yellow,I,y,8,5,69,6,109.85687319999852,,,,,109.84373469999991,109.85687319999852,110.35538039999847,110.35538039999847,110.35538039999847,111.2580614999988,y,1,0.9004115000007005,None,,233364,001,2024-09-13_14h00.00.208,friday16,2024.1.5,None,2024-09-13 14h00.10.081908 +0530,
RED,blue,I,b,8,6,70,1,111.27254169999833,,,,,111.26076169999942,111.27254169999833,111.77253799999926,111.77253799999926,111.77253799999926,113.60811209999883,b,1,1.832355300000927,None,,233364,001,2024-09-13_14h00.00.208,friday16,2024.1.5,None,2024-09-13 14h00.10.081908 +0530,
YELLOW,green,I,g,8,7,71,5,113.62326609999946,,,,,113.61090259999946,113.62326609999946,114.12280389999978,114.12280389999978,114.12280389999978,116.20776459999979,g,1,2.0715454000001046,None,,233364,001,2024-09-13_14h00.00.208,friday16,2024.1.5,None,2024-09-13 14h00.10.081908 +0530,
GREEN,green,I,g,9,0,72,7,116.23785209999915,,,,,116.21097579999878,116.23785209999915,116.72305009999945,116.72305009999945,116.7397392999992,117.70725879999918,g,1,0.9740857999986474,None,,233364,001,2024-09-13_14h00.00.208,friday16,2024.1.5,None,2024-09-13 14h00.10.081908 +0530,
RED,blue,I,b,9,1,73,1,117.72266059999856,,,,,117.70995289999883,117.72266059999856,118.2222933999983,118.2222933999983,118.2222933999983,119.5741296999986,b,1,1.337070000001404,None,,233364,001,2024-09-13_14h00.00.208,friday16,2024.1.5,None,2024-09-13 14h00.10.081908 +0530,
RED,red,C,r,9,2,74,0,119.58957299999929,,,,,119.57692179999867,119.58957299999929,120.08977549999872,120.08977549999872,120.08977549999872,120.82392919999984,r,1,0.7309610000011162,None,,233364,001,2024-09-13_14h00.00.208,friday16,2024.1.5,None,2024-09-13 14h00.10.081908 +0530,
BLUE,blue,C,b,9,3,75,3,120.83940749999965,,,,,120.82661629999893,120.83940749999965,121.33902359999956,121.33902359999956,121.33902359999956,122.67447329999959,b,1,1.3300962000012078,None,,233364,001,2024-09-13_14h00.00.208,friday16,2024.1.5,None,2024-09-13 14h00.10.081908 +0530,
BLUE,red,I,r,9,4,76,2,122.68943259999833,,,,,122.6767936999986,122.68943259999833,123.18943289999879,123.18943289999879,123.18943289999879,123.92448599999989,r,1,0.7173961999997118,None,,233364,001,2024-09-13_14h00.00.208,friday16,2024.1.5,None,2024-09-13 14h00.10.081908 +0530,
YELLOW,yellow,C,y,9,5,77,4,123.95480659999885,,,,,123.9278947999992,123.95480659999885,124.43912109999837,124.43912109999837,124.45585669999855,125.25771369999893,y,1,0.807711700001164,None,,233364,001,2024-09-13_14h00.00.208,friday16,2024.1.5,None,2024-09-13 14h00.10.081908 +0530,
YELLOW,green,I,g,9,6,78,5,125.27274880000004,,,,,125.26040639999883,125.27274880000004,125.77309259999856,125.77309259999856,125.77309259999856,126.99099309999838,g,1,1.2058293000009144,None,,233364,001,2024-09-13_14h00.00.208,friday16,2024.1.5,None,2024-09-13 14h00.10.081908 +0530,
GREEN,yellow,I,y,9,7,79,6,127.0060498999992,,,,,126.99373809999997,127.0060498999992,127.50591589999931,127.50591589999931,127.50591589999931,129.69128629999977,y,1,2.167982700000721,None,,233364,001,2024-09-13_14h00.00.208,friday16,2024.1.5,None,2024-09-13 14h00.10.081908 +0530,
GREEN,green,I,g,10,0,80,7,129.70616019999943,,,,,129.69416549999914,129.70616019999943,130.20588709999902,130.20588709999902,130.20588709999902,131.89023949999864,g,1,1.675872800000434,None,,233364,001,2024-09-13_14h00.00.208,friday16,2024.1.5,None,2024-09-13 14h00.10.081908 +0530,
YELLOW,green,I,g,10,1,81,5,131.90546859999995,,,,,131.8923077999989,131.90546859999995,132.40617810000003,132.40617810000003,132.40617810000003,133.0913365999986,g,1,0.6709845000004862,None,,233364,001,2024-09-13_14h00.00.208,friday16,2024.1.5,None,2024-09-13 14h00.10.081908 +0530,
RED,blue,I,b,10,2,82,1,133.10607869999876,,,,,133.09419939999862,133.10607869999876,133.60580179999852,133.60580179999852,133.60580179999852,134.50703689999864,b,1,0.8864166999992449,None,,233364,001,2024-09-13_14h00.00.208,friday16,2024.1.5,None,2024-09-13 14h00.10.081908 +0530,
YELLOW,yellow,C,y,10,3,83,4,134.52223269999922,,,,,134.5088971999994,134.52223269999922,135.02302400000008,135.02302400000008,135.02302400000008,136.22417139999925,y,1,1.1979430000010325,None,,233364,001,2024-09-13_14h00.00.208,friday16,2024.1.5,None,2024-09-13 14h00.10.081908 +0530,
BLUE,red,I,r,10,4,84,2,136.23915279999892,,,,,136.22675909999998,136.23915279999892,136.73889859999872,136.73889859999872,136.73889859999872,138.47440229999847,r,1,1.7242635999991762,None,,233364,001,2024-09-13_14h00.00.208,friday16,2024.1.5,None,2024-09-13 14h00.10.081908 +0530,
GREEN,yellow,I,y,10,5,85,6,138.48976969999967,,,,,138.47712219999994,138.48976969999967,138.9898177999985,138.9898177999985,138.9898177999985,140.02415560000009,g,0,1.0259814000000915,None,,233364,001,2024-09-13_14h00.00.208,friday16,2024.1.5,None,2024-09-13 14h00.10.081908 +0530,
BLUE,blue,C,b,10,6,86,3,140.03942229999848,,,,,140.0268888999999,140.03942229999848,140.5390572999986,140.5390572999986,140.5390572999986,142.2073864999984,b,1,1.6589008000009926,None,,233364,001,2024-09-13_14h00.00.208,friday16,2024.1.5,None,2024-09-13 14h00.10.081908 +0530,
RED,red,C,r,10,7,87,0,142.2225312999999,,,,,142.21022359999915,142.2225312999999,142.72289289999935,142.72289289999935,142.72289289999935,143.29142559999855,r,1,0.5631193999997777,None,,233364,001,2024-09-13_14h00.00.208,friday16,2024.1.5,None,2024-09-13 14h00.10.081908 +0530,
BLUE,blue,C,b,11,0,88,3,143.30590759999905,,,,,143.29415249999875,143.30590759999905,143.80585019999853,143.80585019999853,143.80585019999853,144.8075957000001,b,1,0.9935803999997006,None,,233364,001,2024-09-13_14h00.00.208,friday16,2024.1.5,None,2024-09-13 14h00.10.081908 +0530,
RED,red,C,r,11,1,89,0,144.8226426000001,,,,,144.81028629999855,144.8226426000001,145.32293539999955,145.32293539999955,145.32293539999955,146.04047679999894,r,1,0.7157284999993863,None,,233364,001,2024-09-13_14h00.00.208,friday16,2024.1.5,None,2024-09-13 14h00.10.081908 +0530,
YELLOW,yellow,C,y,11,2,90,4,146.05575239999962,,,,,146.04248909999842,146.05575239999962,146.55604809999932,146.55604809999932,146.55604809999932,147.3743132999989,y,1,0.8134384999993927,None,,233364,001,2024-09-13_14h00.00.208,friday16,2024.1.5,None,2024-09-13 14h00.10.081908 +0530,
BLUE,red,I,r,11,3,91,2,147.38953429999856,,,,,147.3770319999985,147.38953429999856,147.8893864999991,147.8893864999991,147.8893864999991,149.1913801999999,r,1,1.2856525000006513,None,,233364,001,2024-09-13_14h00.00.208,friday16,2024.1.5,None,2024-09-13 14h00.10.081908 +0530,
GREEN,green,I,g,11,4,92,7,149.2060677999998,,,,,149.19414009999855,149.2060677999998,149.70597759999873,149.70597759999873,149.70597759999873,154.77456579999853,g,1,5.054466699999466,None,154.70614659999956,233364,001,2024-09-13_14h00.00.208,friday16,2024.1.5,None,2024-09-13 14h00.10.081908 +0530,
RED,blue,I,b,11,5,93,1,154.79009640000004,,,,,154.77738849999878,154.79009640000004,155.2892740999996,155.2892740999996,155.2892740999996,156.42414589999862,b,1,1.1290693999999348,None,,233364,001,2024-09-13_14h00.00.208,friday16,2024.1.5,None,2024-09-13 14h00.10.081908 +0530,
YELLOW,green,I,g,11,6,94,5,156.4386771999998,,,,,156.42660649999925,156.4386771999998,156.9394744000001,156.9394744000001,156.9394744000001,157.94188239999858,g,1,0.9952613000004931,None,,233364,001,2024-09-13_14h00.00.208,friday16,2024.1.5,None,2024-09-13 14h00.10.081908 +0530,
GREEN,yellow,I,y,11,7,95,6,157.95620419999977,,,,,157.94466629999988,157.95620419999977,158.45624019999923,158.45624019999923,158.45624019999923,162.90733619999992,y,1,4.436021499999697,None,,233364,001,2024-09-13_14h00.00.208,friday16,2024.1.5,None,2024-09-13 14h00.10.081908 +0530,
YELLOW,yellow,C,y,12,0,96,4,162.9230910999995,,,,,162.91014799999903,162.9230910999995,163.42256429999907,163.42256429999907,163.42256429999907,164.14108379999925,y,1,0.7036026000005222,None,,233364,001,2024-09-13_14h00.00.208,friday16,2024.1.5,None,2024-09-13 14h00.10.081908 +0530,
GREEN,green,I,g,12,1,97,7,164.1560344999998,,,,,164.1438660999993,164.1560344999998,164.65635949999887,164.65635949999887,164.65635949999887,167.6578656999991,g,1,2.988718399999925,None,,233364,001,2024-09-13_14h00.00.208,friday16,2024.1.5,None,2024-09-13 14h00.10.081908 +0530,
YELLOW,green,I,g,12,2,98,5,167.67274299999917,,,,,167.66060919999836,167.67274299999917,168.17272219999904,168.17272219999904,168.17272219999904,173.05729079999946,g,1,4.87202520000028,None,,233364,001,2024-09-13_14h00.00.208,friday16,2024.1.5,None,2024-09-13 14h00.10.081908 +0530,
GREEN,yellow,I,y,12,3,99,6,173.07238939999843,,,,,173.06070069999987,173.07238939999843,173.57273480000003,173.57273480000003,173.57273480000003,174.40782760000002,y,1,0.8312359000010474,None,,233364,001,2024-09-13_14h00.00.208,friday16,2024.1.5,None,2024-09-13 14h00.10.081908 +0530,
BLUE,blue,C,b,12,4,100,3,174.42291179999847,,,,,174.41055659999984,174.42291179999847,174.9226103000001,174.9226103000001,174.9226103000001,175.69173059999957,b,1,0.7561041999997542,None,,233364,001,2024-09-13_14h00.00.208,friday16,2024.1.5,None,2024-09-13 14h00.10.081908 +0530,
BLUE,red,I,r,12,5,101,2,175.70571339999879,,,,,175.69411729999956,175.70571339999879,176.20594209999945,176.20594209999945,176.20594209999945,178.35780259999956,r,1,2.1379087999994226,None,,233364,001,2024-09-13_14h00.00.208,friday16,2024.1.5,None,2024-09-13 14h00.10.081908 +0530,
RED,red,C,r,12,6,102,0,178.37268549999862,,,,,178.36054799999874,178.37268549999862,178.8726440999999,178.8726440999999,178.8726440999999,179.60744929999964,r,1,0.7248442000000068,None,,233364,001,2024-09-13_14h00.00.208,friday16,2024.1.5,None,2024-09-13 14h00.10.081908 +0530,
RED,blue,I,b,12,7,103,1,179.62288420000004,,,,,179.61047299999882,179.62288420000004,180.12364239999988,180.12364239999988,180.12364239999988,183.1243818999992,b,1,2.994254600000204,None,,233364,001,2024-09-13_14h00.00.208,friday16,2024.1.5,None,2024-09-13 14h00.10.081908 +0530,
RED,red,C,r,13,0,104,0,183.13946419999957,,,,,183.12733279999884,183.13946419999957,183.63959579999937,183.63959579999937,183.63959579999937,185.04085009999835,r,1,1.3854938999993465,None,,233364,001,2024-09-13_14h00.00.208,friday16,2024.1.5,None,2024-09-13 14h00.10.081908 +0530,
GREEN,green,I,g,13,1,105,7,185.05617269999857,,,,,185.04358890000003,185.05617269999857,185.55631769999854,185.55631769999854,185.55631769999854,186.7909671999987,g,1,1.2295752999998513,None,,233364,001,2024-09-13_14h00.00.208,friday16,2024.1.5,None,2024-09-13 14h00.10.081908 +0530,
BLUE,red,I,r,13,2,106,2,186.80578689999857,,,,,186.79333569999835,186.80578689999857,187.3060491999986,187.3060491999986,187.3060491999986,190.04090539999925,r,1,2.7280253999997512,None,,233364,001,2024-09-13_14h00.00.208,friday16,2024.1.5,None,2024-09-13 14h00.10.081908 +0530,
GREEN,yellow,I,y,13,3,107,6,190.0562549999995,,,,,190.04357789999995,190.0562549999995,190.55634779999855,190.55634779999855,190.55634779999855,191.99098439999943,y,1,1.4257278999994014,None,,233364,001,2024-09-13_14h00.00.208,friday16,2024.1.5,None,2024-09-13 14h00.10.081908 +0530,
BLUE,blue,C,b,13,4,108,3,192.00611939999908,,,,,191.9937859999991,192.00611939999908,192.50592489999872,192.50592489999872,192.50592489999872,197.64122719999978,b,1,5.129822700000659,None,197.50617669999883,233364,001,2024-09-13_14h00.00.208,friday16,2024.1.5,None,2024-09-13 14h00.10.081908 +0530,
YELLOW,green,I,g,13,5,109,5,197.65666679999958,,,,,197.64405129999977,197.65666679999958,198.15653819999898,198.15653819999898,198.15653819999898,199.04099069999938,y,0,0.8748966999992263,None,,233364,001,2024-09-13_14h00.00.208,friday16,2024.1.5,None,2024-09-13 14h00.10.081908 +0530,
RED,blue,I,b,13,6,110,1,199.0561431999995,,,,,199.04379139999946,199.0561431999995,199.55639829999927,199.55639829999927,199.55639829999927,201.24067819999982,b,1,1.6740217999995366,None,,233364,001,2024-09-13_14h00.00.208,friday16,2024.1.5,None,2024-09-13 14h00.10.081908 +0530,
YELLOW,yellow,C,y,13,7,111,4,201.25592189999952,,,,,201.24340329999904,201.25592189999952,201.75631379999868,201.75631379999868,201.75631379999868,202.5076384999993,y,1,0.743385900001158,None,,233364,001,2024-09-13_14h00.00.208,friday16,2024.1.5,None,2024-09-13 14h00.10.081908 +0530,
RED,blue,I,b,14,0,112,1,202.52277009999852,,,,,202.5103124999987,202.52277009999852,203.0230432999997,203.0230432999997,203.0230432999997,204.15823379999892,b,1,1.1302958999986004,None,,233364,001,2024-09-13_14h00.00.208,friday16,2024.1.5,None,2024-09-13 14h00.10.081908 +0530,
BLUE,red,I,r,14,1,113,2,204.17287020000003,,,,,204.1610314999998,204.17287020000003,204.6728140999985,204.6728140999985,204.6728140999985,205.39068829999997,r,1,0.7073159999999916,None,,233364,001,2024-09-13_14h00.00.208,friday16,2024.1.5,None,2024-09-13 14h00.10.081908 +0530,
GREEN,green,I,g,14,2,114,7,205.40614229999846,,,,,205.3934352999986,205.40614229999846,205.90606409999964,205.90606409999964,205.90606409999964,206.77414999999928,g,1,0.854410400001143,None,,233364,001,2024-09-13_14h00.00.208,friday16,2024.1.5,None,2024-09-13 14h00.10.081908 +0530,
YELLOW,yellow,C,y,14,3,115,4,206.78979979999895,,,,,206.7769017999999,206.78979979999895,207.2896088999987,207.2896088999987,207.2896088999987,208.02469889999884,y,1,0.7254921999992803,None,,233364,001,2024-09-13_14h00.00.208,friday16,2024.1.5,None,2024-09-13 14h00.10.081908 +0530,
YELLOW,green,I,g,14,4,116,5,208.03937210000004,,,,,208.0274105999997,208.03937210000004,208.53985659999853,208.53985659999853,208.53985659999853,210.34111159999884,g,1,1.7931989999997313,None,,233364,001,2024-09-13_14h00.00.208,friday16,2024.1.5,None,2024-09-13 14h00.10.081908 +0530,
RED,red,C,r,14,5,117,0,210.35620519999975,,,,,210.34384799999862,210.35620519999975,210.85616949999894,210.85616949999894,210.85616949999894,211.82451760000004,r,1,0.9542509999992035,None,,233364,001,2024-09-13_14h00.00.208,friday16,2024.1.5,None,2024-09-13 14h00.10.081908 +0530,
BLUE,blue,C,b,14,6,118,3,211.8393748999988,,,,,211.8271840999987,211.8393748999988,212.3393660999991,212.3393660999991,212.3393660999991,213.12445039999875,b,1,0.7836311999999452,None,,233364,001,2024-09-13_14h00.00.208,friday16,2024.1.5,None,2024-09-13 14h00.10.081908 +0530,
GREEN,yellow,I,y,14,7,119,6,213.1396578999993,,,,,213.12734799999998,213.1396578999993,213.6397315999984,213.6397315999984,213.6397315999984,215.75787369999853,y,1,2.1113966000011715,None,,233364,001,2024-09-13_14h00.00.208,friday16,2024.1.5,None,2024-09-13 14h00.10.081908 +0530,
YELLOW,yellow,C,y,15,0,120,4,215.77210279999963,,,,,215.76026719999936,215.77210279999963,216.27273859999877,216.27273859999877,216.27273859999877,216.8077930999989,y,1,0.5220507000012731,None,,233364,001,2024-09-13_14h00.00.208,friday16,2024.1.5,None,2024-09-13 14h00.10.081908 +0530,
YELLOW,green,I,g,15,1,121,5,216.82325229999879,,,,,216.81045039999844,216.82325229999879,217.32286189999832,217.32286189999832,217.32286189999832,218.02456029999848,g,1,0.6865895999999339,None,,233364,001,2024-09-13_14h00.00.208,friday16,2024.1.5,None,2024-09-13 14h00.10.081908 +0530,
BLUE,red,I,r,15,2,122,2,218.03992539999854,,,,,218.0273344999987,218.03992539999854,218.5394755999987,218.5394755999987,218.5394755999987,219.47452479999993,r,1,0.9321073999999498,None,,233364,001,2024-09-13_14h00.00.208,friday16,2024.1.5,None,2024-09-13 14h00.10.081908 +0530,
RED,red,C,r,15,3,123,0,219.48966929999915,,,,,219.47722969999995,219.48966929999915,219.9893422999994,219.9893422999994,219.9893422999994,220.6408666999996,r,1,0.6391703999997844,None,,233364,001,2024-09-13_14h00.00.208,friday16,2024.1.5,None,2024-09-13 14h00.10.081908 +0530,
BLUE,blue,C,b,15,4,124,3,220.65621389999978,,,,,220.64364739999837,220.65621389999978,221.15644209999846,221.15644209999846,221.15644209999846,221.741362499999,b,1,0.5761017999993783,None,,233364,001,2024-09-13_14h00.00.208,friday16,2024.1.5,None,2024-09-13 14h00.10.081908 +0530,
RED,blue,I,b,15,5,125,1,221.75645819999954,,,,,221.7441278999995,221.75645819999954,222.25614519999908,222.25614519999908,222.25614519999908,223.20790599999964,b,1,0.9487400999987585,None,,233364,001,2024-09-13_14h00.00.208,friday16,2024.1.5,None,2024-09-13 14h00.10.081908 +0530,
GREEN,yellow,I,y,15,6,126,6,223.22376839999924,,,,,223.21060279999983,223.22376839999924,223.72287009999854,223.72287009999854,223.72287009999854,224.55803769999875,y,1,0.8285778999998001,None,,233364,001,2024-09-13_14h00.00.208,friday16,2024.1.5,None,2024-09-13 14h00.10.081908 +0530,
GREEN,green,I,g,15,7,127,7,224.572928399999,,,,,224.56077149999874,224.572928399999,225.0728091000001,225.0728091000001,225.0728091000001,225.97443789999852,g,1,0.8902017000000342,None,,233364,001,2024-09-13_14h00.00.208,friday16,2024.1.5,None,2024-09-13 14h00.10.081908 +0530,
BLUE,blue,C,b,16,0,128,3,225.98959809999906,,,,,225.97725369999898,225.98959809999906,226.4901245000001,226.4901245000001,226.4901245000001,227.35792409999885,b,1,0.8575869000014791,None,,233364,001,2024-09-13_14h00.00.208,friday16,2024.1.5,None,2024-09-13 14h00.10.081908 +0530,
YELLOW,green,I,g,16,1,129,5,227.37222699999984,,,,,227.36058449999837,227.37222699999984,227.87295649999942,227.87295649999942,227.87295649999942,228.7745004999997,g,1,0.9001531000012619,None,,233364,001,2024-09-13_14h00.00.208,friday16,2024.1.5,None,2024-09-13 14h00.10.081908 +0530,
GREEN,yellow,I,y,16,2,130,6,228.78942009999992,,,,,228.77724279999893,228.78942009999992,229.28966949999995,229.28966949999995,229.28966949999995,230.47451069999988,y,1,1.172043799999301,None,,233364,001,2024-09-13_14h00.00.208,friday16,2024.1.5,None,2024-09-13 14h00.10.081908 +0530,
RED,red,C,r,16,3,131,0,230.48942989999887,,,,,230.4773544999989,230.48942989999887,230.98950589999913,230.98950589999913,230.98950589999913,231.724476899999,r,1,0.7192170999987866,None,,233364,001,2024-09-13_14h00.00.208,friday16,2024.1.5,None,2024-09-13 14h00.10.081908 +0530,
GREEN,green,I,g,16,4,132,7,231.73990950000007,,,,,231.72750019999876,231.73990950000007,232.2396510999988,232.2396510999988,232.2396510999988,232.92441719999988,g,1,0.6769955999989179,None,,233364,001,2024-09-13_14h00.00.208,friday16,2024.1.5,None,2024-09-13 14h00.10.081908 +0530,
BLUE,red,I,r,16,5,133,2,232.93907239999862,,,,,232.92734199999904,232.93907239999862,233.43942789999892,233.43942789999892,233.43942789999892,234.4283538999989,r,1,0.9860905000005005,None,,233364,001,2024-09-13_14h00.00.208,friday16,2024.1.5,None,2024-09-13 14h00.10.081908 +0530,
RED,blue,I,b,16,6,134,1,234.45591619999868,,,,,234.4347162999984,234.45591619999868,234.9421982999993,234.9421982999993,234.95901559999947,235.92521749999833,b,1,0.9814038000004075,None,,233364,001,2024-09-13_14h00.00.208,friday16,2024.1.5,None,2024-09-13 14h00.10.081908 +0530,
YELLOW,yellow,C,y,16,7,135,4,235.9394658000001,,,,,235.92802289999963,235.9394658000001,236.43968649999988,236.43968649999988,236.43968649999988,237.1246435999983,y,1,0.6728128000013385,None,,233364,001,2024-09-13_14h00.00.208,friday16,2024.1.5,None,2024-09-13 14h00.10.081908 +0530,
GREEN,yellow,I,y,17,0,136,6,237.13979589999872,,,,,237.12738209999952,237.13979589999872,237.64032099999895,237.64032099999895,237.64032099999895,238.75811749999957,y,1,1.1147610999996687,None,,233364,001,2024-09-13_14h00.00.208,friday16,2024.1.5,None,2024-09-13 14h00.10.081908 +0530,
BLUE,red,I,r,17,1,137,2,238.7733621999996,,,,,238.76091869999982,238.7733621999996,239.27267699999902,239.27267699999902,239.27267699999902,240.65765969999848,r,1,1.3743850999999268,None,,233364,001,2024-09-13_14h00.00.208,friday16,2024.1.5,None,2024-09-13 14h00.10.081908 +0530,
BLUE,blue,C,b,17,2,138,3,240.6727835999991,,,,,240.66030239999964,240.6727835999991,241.17325469999923,241.17325469999923,241.17325469999923,242.19086029999926,b,1,1.0003584999994928,None,,233364,001,2024-09-13_14h00.00.208,friday16,2024.1.5,None,2024-09-13 14h00.10.081908 +0530,
YELLOW,yellow,C,y,17,3,139,4,242.20612289999917,,,,,242.19364639999912,242.20612289999917,242.7063959999996,242.7063959999996,242.7063959999996,243.45779579999908,y,1,0.7461277000002156,None,,233364,001,2024-09-13_14h00.00.208,friday16,2024.1.5,None,2024-09-13 14h00.10.081908 +0530,
GREEN,green,I,g,17,4,140,7,243.47277629999917,,,,,243.46063030000005,243.47277629999917,243.9731568999996,243.9731568999996,243.9731568999996,244.62443069999972,g,1,0.637030699999741,None,,233364,001,2024-09-13_14h00.00.208,friday16,2024.1.5,None,2024-09-13 14h00.10.081908 +0530,
RED,blue,I,b,17,5,141,1,244.63983459999872,,,,,244.6274113999989,244.63983459999872,245.13967769999908,245.13967769999908,245.13967769999908,246.29106759999922,b,1,1.1452344999997877,None,,233364,001,2024-09-13_14h00.00.208,friday16,2024.1.5,None,2024-09-13 14h00.10.081908 +0530,
RED,red,C,r,17,6,142,0,246.30651020000005,,,,,246.29387749999842,246.30651020000005,246.8061951999989,246.8061951999989,246.8061951999989,247.408042699999,r,1,0.5902917000003072,None,,233364,001,2024-09-13_14h00.00.208,friday16,2024.1.5,None,2024-09-13 14h00.10.081908 +0530,
YELLOW,green,I,g,17,7,143,5,247.42307319999964,,,,,247.41070559999935,247.42307319999964,247.92295939999894,247.92295939999894,247.92295939999894,249.72454049999942,g,1,1.798731200000475,None,,233364,001,2024-09-13_14h00.00.208,friday16,2024.1.5,None,2024-09-13 14h00.10.081908 +0530,
BLUE,blue,C,b,18,0,144,3,249.7393376,,,,,249.72720469999877,249.7393376,250.24004710000008,250.24004710000008,250.24004710000008,251.0075864999999,b,1,0.7651733999991848,None,,233364,001,2024-09-13_14h00.00.208,friday16,2024.1.5,None,2024-09-13 14h00.10.081908 +0530,
RED,red,C,r,18,1,145,0,251.02277749999848,,,,,251.010184499999,251.02277749999848,251.5229077999993,251.5229077999993,251.5229077999993,252.19025929999952,r,1,0.6622248999992735,None,,233364,001,2024-09-13_14h00.00.208,friday16,2024.1.5,None,2024-09-13 14h00.10.081908 +0530,
RED,blue,I,b,18,2,146,1,252.2062681999996,,,,,252.19238469999982,252.2062681999996,252.7061120999988,252.7061120999988,252.7061120999988,253.67485249999845,b,1,0.9526716000000306,None,,233364,001,2024-09-13_14h00.00.208,friday16,2024.1.5,None,2024-09-13 14h00.10.081908 +0530,
YELLOW,yellow,C,y,18,3,147,4,253.68948339999952,,,,,253.67880530000002,253.68948339999952,254.1896874999984,254.1896874999984,254.1896874999984,254.94123979999858,y,1,0.7363384999989648,None,,233364,001,2024-09-13_14h00.00.208,friday16,2024.1.5,None,2024-09-13 14h00.10.081908 +0530,
GREEN,green,I,g,18,4,148,7,254.9570866999984,,,,,254.94396079999933,254.9570866999984,255.4564913999984,255.4564913999984,255.4564913999984,256.20793759999833,g,1,0.7396621999996569,None,,233364,001,2024-09-13_14h00.00.208,friday16,2024.1.5,None,2024-09-13 14h00.10.081908 +0530,
YELLOW,green,I,g,18,5,149,5,256.222942299999,,,,,256.21079869999994,256.222942299999,256.72253159999855,256.72253159999855,256.72253159999855,257.50830659999883,g,1,0.774834899999405,None,,233364,001,2024-09-13_14h00.00.208,friday16,2024.1.5,None,2024-09-13 14h00.10.081908 +0530,
GREEN,yellow,I,y,18,6,150,6,257.52279669999916,,,,,257.51100809999843,257.52279669999916,258.02318449999984,258.02318449999984,258.02318449999984,258.7410843999987,y,1,0.7014737000008608,None,,233364,001,2024-09-13_14h00.00.208,friday16,2024.1.5,None,2024-09-13 14h00.10.081908 +0530,
BLUE,red,I,r,18,7,151,2,258.75612869999895,,,,,258.7438027999997,258.75612869999895,259.255769899999,259.255769899999,259.255769899999,260.15828639999927,r,1,0.899753800000326,None,,233364,001,2024-09-13_14h00.00.208,friday16,2024.1.5,None,2024-09-13 14h00.10.081908 +0530,
GREEN,yellow,I,y,19,0,152,6,260.17304669999976,,,,,260.1610058999995,260.17304669999976,260.67295679999916,260.67295679999916,260.67295679999916,262.00723990000006,y,1,1.3232340999984444,None,,233364,001,2024-09-13_14h00.00.208,friday16,2024.1.5,None,2024-09-13 14h00.10.081908 +0530,
BLUE,blue,C,b,19,1,153,3,262.02232359999834,,,,,262.00914459999876,262.02232359999834,262.52281199999925,262.52281199999925,262.52281199999925,263.4910487999987,b,1,0.9626544000002468,None,,233364,001,2024-09-13_14h00.00.208,friday16,2024.1.5,None,2024-09-13 14h00.10.081908 +0530,
GREEN,green,I,g,19,2,154,7,263.50689449999845,,,,,263.4937042999991,263.50689449999845,264.0062143999985,264.0062143999985,264.0062143999985,264.8079242999993,g,1,0.7974261999988812,None,,233364,001,2024-09-13_14h00.00.208,friday16,2024.1.5,None,2024-09-13 14h00.10.081908 +0530,
YELLOW,yellow,C,y,19,3,155,4,264.8228855999987,,,,,264.8106461999996,264.8228855999987,265.3229186999997,265.3229186999997,265.3229186999997,266.0238997999986,y,1,0.6902092999989691,None,,233364,001,2024-09-13_14h00.00.208,friday16,2024.1.5,None,2024-09-13 14h00.10.081908 +0530,
RED,blue,I,b,19,4,156,1,266.0395217999994,,,,,266.02603869999984,266.0395217999994,266.5393527999986,266.5393527999986,266.5393527999986,267.50821299999916,b,1,0.9641242999987298,None,,233364,001,2024-09-13_14h00.00.208,friday16,2024.1.5,None,2024-09-13 14h00.10.081908 +0530,
BLUE,red,I,r,19,5,157,2,267.5229851999993,,,,,267.51094869999906,267.5229851999993,268.0229456999987,268.0229456999987,268.0229456999987,269.0909791999984,r,1,1.064389699999083,None,,233364,001,2024-09-13_14h00.00.208,friday16,2024.1.5,None,2024-09-13 14h00.10.081908 +0530,
RED,red,C,r,19,6,158,0,269.10649009999906,,,,,269.0936800999989,269.10649009999906,269.6060813999993,269.6060813999993,269.6060813999993,270.14088289999927,r,1,0.5316487000000052,None,,233364,001,2024-09-13_14h00.00.208,friday16,2024.1.5,None,2024-09-13 14h00.10.081908 +0530,
YELLOW,green,I,g,19,7,159,5,270.1562309000001,,,,,270.1435941999989,270.1562309000001,270.6559602999987,270.6559602999987,270.6559602999987,271.24148389999937,y,0,0.5772440000000643,None,,233364,001,2024-09-13_14h00.00.208,friday16,2024.1.5,None,2024-09-13 14h00.10.081908 +0530,
RED,red,C,r,20,0,160,0,271.25619359999837,,,,,271.24416389999897,271.25619359999837,271.75618889999896,271.75618889999896,271.75618889999896,272.54121379999924,r,1,0.7820926000003965,None,,233364,001,2024-09-13_14h00.00.208,friday16,2024.1.5,None,2024-09-13 14h00.10.081908 +0530,
GREEN,green,I,g,20,1,161,7,272.5561066999999,,,,,272.54389809999884,272.5561066999999,273.056124499999,273.056124499999,273.056124499999,275.09093649999886,g,1,2.025596499999665,None,,233364,001,2024-09-13_14h00.00.208,friday16,2024.1.5,None,2024-09-13 14h00.10.081908 +0530,
YELLOW,yellow,C,y,20,2,162,4,275.10635469999943,,,,,275.09362559999863,275.10635469999943,275.60638969999854,275.60638969999854,275.60638969999854,276.257647299999,y,1,0.6369842999993125,None,,233364,001,2024-09-13_14h00.00.208,friday16,2024.1.5,None,2024-09-13 14h00.10.081908 +0530,
YELLOW,green,I,g,20,3,163,5,276.2727611999999,,,,,276.2604524999988,276.2727611999999,276.77284229999896,276.77284229999896,276.77284229999896,278.20860679999896,g,1,1.434235599999738,None,,233364,001,2024-09-13_14h00.00.208,friday16,2024.1.5,None,2024-09-13 14h00.10.081908 +0530,
BLUE,blue,C,b,20,4,164,3,278.2237207999988,,,,,278.2115924999998,278.2237207999988,278.7225118999995,278.7225118999995,278.7225118999995,280.4900010000001,b,1,1.7614896000013687,None,,233364,001,2024-09-13_14h00.00.208,friday16,2024.1.5,None,2024-09-13 14h00.10.081908 +0530,
RED,blue,I,b,20,5,165,1,280.5054550999994,,,,,280.4916917999999,280.5054550999994,281.00541019999946,281.00541019999946,281.00541019999946,282.9567809,r,0,1.9432819999983622,None,,233364,001,2024-09-13_14h00.00.208,friday16,2024.1.5,None,2024-09-13 14h00.10.081908 +0530,
GREEN,yellow,I,y,20,6,166,6,282.9721721999995,,,,,282.9584729999988,282.9721721999995,283.4729325999997,283.4729325999997,283.4729325999997,285.52310489999945,g,0,2.0387807000006433,None,,233364,001,2024-09-13_14h00.00.208,friday16,2024.1.5,None,2024-09-13 14h00.10.081908 +0530,
BLUE,red,I,r,20,7,167,2,285.5388151999996,,,,,285.5247939000001,285.5388151999996,286.0395026999995,286.0395026999995,286.0395026999995,286.77314809999916,r,1,0.7260421000009956,None,,233364,001,2024-09-13_14h00.00.208,friday16,2024.1.5,None,2024-09-13 14h00.10.081908 +0530,
RED,blue,I,b,21,0,168,1,286.7889301999985,,,,,286.7748836999999,286.7889301999985,287.2890325999997,287.2890325999997,287.2890325999997,288.0401931999986,b,1,0.7459930999993958,None,,233364,001,2024-09-13_14h00.00.208,friday16,2024.1.5,None,2024-09-13 14h00.10.081908 +0530,
YELLOW,green,I,g,21,1,169,5,288.05568669999957,,,,,288.0418669999999,288.05568669999957,288.5557089999984,288.5557089999984,288.5557089999984,290.7906606999986,g,1,2.2270841999998083,None,,233364,001,2024-09-13_14h00.00.208,friday16,2024.1.5,None,2024-09-13 14h00.10.081908 +0530,
YELLOW,yellow,C,y,21,2,170,4,290.8057536999986,,,,,290.79260629999953,290.8057536999986,291.30557279999994,291.30557279999994,291.30557279999994,291.97416859999976,y,1,0.6577937000001839,None,,233364,001,2024-09-13_14h00.00.208,friday16,2024.1.5,None,2024-09-13 14h00.10.081908 +0530,
RED,red,C,r,21,3,171,0,291.9897078999984,,,,,291.9765555999984,291.9897078999984,292.48874909999904,292.48874909999904,292.48874909999904,293.123172399999,r,1,0.6171396999998251,None,,233364,001,2024-09-13_14h00.00.208,friday16,2024.1.5,None,2024-09-13 14h00.10.081908 +0530,
GREEN,yellow,I,y,21,4,172,6,293.13883279999936,,,,,293.12487489999876,293.13883279999936,293.6389060999991,293.6389060999991,293.6389060999991,294.72350359999837,y,1,1.0782712999989599,None,,233364,001,2024-09-13_14h00.00.208,friday16,2024.1.5,None,2024-09-13 14h00.10.081908 +0530,
GREEN,green,I,g,21,5,173,7,294.73886129999846,,,,,294.7252142999987,294.73886129999846,295.2390985999991,295.2390985999991,295.2390985999991,295.9234594999998,g,1,0.677541699998983,None,,233364,001,2024-09-13_14h00.00.208,friday16,2024.1.5,None,2024-09-13 14h00.10.081908 +0530,
BLUE,red,I,r,21,6,174,2,295.93896439999844,,,,,295.925158,295.93896439999844,296.4389306999983,296.4389306999983,296.4389306999983,297.95645989999866,r,1,1.5023737000010442,None,,233364,001,2024-09-13_14h00.00.208,friday16,2024.1.5,None,2024-09-13 14h00.10.081908 +0530,
BLUE,blue,C,b,21,7,175,3,297.9720548999994,,,,,297.9582008999987,297.9720548999994,298.47254369999973,298.47254369999973,298.47254369999973,299.3411673999999,b,1,0.8653256999987207,None,,233364,001,2024-09-13_14h00.00.208,friday16,2024.1.5,None,2024-09-13 14h00.10.081908 +0530,
BLUE,red,I,r,22,0,176,2,299.3560690999984,,,,,299.3438535999994,299.3560690999984,299.8565509,299.8565509,299.8565509,301.1574178999999,r,1,1.2933196000012686,None,,233364,001,2024-09-13_14h00.00.208,friday16,2024.1.5,None,2024-09-13 14h00.10.081908 +0530,
RED,red,C,r,22,1,177,0,301.1727651000001,,,,,301.1599129999995,301.1727651000001,301.6726891999988,301.6726891999988,301.6726891999988,302.4911405999992,r,1,0.8107130000007601,None,,233364,001,2024-09-13_14h00.00.208,friday16,2024.1.5,None,2024-09-13 14h00.10.081908 +0530,
YELLOW,yellow,C,y,22,2,178,4,302.506351,,,,,302.4938035999985,302.506351,303.0063749000001,303.0063749000001,303.0063749000001,303.7745335999989,y,1,0.7615576999996847,None,,233364,001,2024-09-13_14h00.00.208,friday16,2024.1.5,None,2024-09-13 14h00.10.081908 +0530,
GREEN,green,I,g,22,3,179,7,303.78976519999924,,,,,303.7772335999998,303.78976519999924,304.2894921999996,304.2894921999996,304.2894921999996,304.9575649999988,g,1,0.659494800000175,None,,233364,001,2024-09-13_14h00.00.208,friday16,2024.1.5,None,2024-09-13 14h00.10.081908 +0530,
GREEN,yellow,I,y,22,4,180,6,304.97276599999896,,,,,304.96024189999844,304.97276599999896,305.47289549999914,305.47289549999914,305.47289549999914,306.62404089999836,y,1,1.1339692000001378,None,,233364,001,2024-09-13_14h00.00.208,friday16,2024.1.5,None,2024-09-13 14h00.10.081908 +0530,
BLUE,blue,C,b,22,5,181,3,306.6396113999999,,,,,306.62670049999906,306.6396113999999,307.1394565999999,307.1394565999999,307.1394565999999,308.1913767999995,b,1,1.0394835999995848,None,,233364,001,2024-09-13_14h00.00.208,friday16,2024.1.5,None,2024-09-13 14h00.10.081908 +0530,
YELLOW,green,I,g,22,6,182,5,308.206079399999,,,,,308.1941064999992,308.206079399999,308.7065367999985,308.7065367999985,308.7065367999985,309.7743907999993,g,1,1.053108100000827,None,,233364,001,2024-09-13_14h00.00.208,friday16,2024.1.5,None,2024-09-13 14h00.10.081908 +0530,
RED,blue,I,b,22,7,183,1,309.7898239999995,,,,,309.77714149999883,309.7898239999995,310.28957509999964,310.28957509999964,310.28957509999964,311.39125579999927,b,1,1.095579999999245,None,,233364,001,2024-09-13_14h00.00.208,friday16,2024.1.5,None,2024-09-13 14h00.10.081908 +0530,
RED,red,C,r,23,0,184,0,311.4063944999998,,,,,311.39398919999985,311.4063944999998,311.9061669999992,311.9061669999992,311.9061669999992,312.50774509999974,r,1,0.5898358999984339,None,,233364,001,2024-09-13_14h00.00.208,friday16,2024.1.5,None,2024-09-13 14h00.10.081908 +0530,
YELLOW,green,I,g,23,1,185,5,312.5231240999983,,,,,312.5104233999991,312.5231240999983,313.0229814999984,313.0229814999984,313.0229814999984,317.6076151999987,g,1,4.567980099998749,None,,233364,001,2024-09-13_14h00.00.208,friday16,2024.1.5,None,2024-09-13 14h00.10.081908 +0530,
BLUE,red,I,r,23,2,186,2,317.6228719999999,,,,,317.6103600999995,317.6228719999999,318.12345409999944,318.12345409999944,318.12345409999944,319.04003829999965,r,1,0.9028285000003962,None,,233364,001,2024-09-13_14h00.00.208,friday16,2024.1.5,None,2024-09-13 14h00.10.081908 +0530,
GREEN,yellow,I,y,23,3,187,6,319.0561422999999,,,,,319.04223719999936,319.0561422999999,319.55650179999975,319.55650179999975,319.55650179999975,320.3247378999986,y,1,0.7607265999995434,None,,233364,001,2024-09-13_14h00.00.208,friday16,2024.1.5,None,2024-09-13 14h00.10.081908 +0530,
BLUE,blue,C,b,23,4,188,3,320.33977629999936,,,,,320.327362,320.33977629999936,320.8399262999992,320.8399262999992,320.8399262999992,322.0244445999997,b,1,1.173300600001312,None,,233364,001,2024-09-13_14h00.00.208,friday16,2024.1.5,None,2024-09-13 14h00.10.081908 +0530,
GREEN,green,I,g,23,5,189,7,322.0398114999989,,,,,322.0270776999987,322.0398114999989,322.5395327999995,322.5395327999995,322.5395327999995,323.9246769000001,g,1,1.3737564999992173,None,,233364,001,2024-09-13_14h00.00.208,friday16,2024.1.5,None,2024-09-13 14h00.10.081908 +0530,
RED,blue,I,b,23,6,190,1,323.9395659999991,,,,,323.92748049999864,323.9395659999991,324.43960889999835,324.43960889999835,324.43960889999835,325.6577903999987,b,1,1.2022222000014153,None,,233364,001,2024-09-13_14h00.00.208,friday16,2024.1.5,None,2024-09-13 14h00.10.081908 +0530,
YELLOW,yellow,C,y,23,7,191,4,325.6729701999993,,,,,325.6600853,325.6729701999993,326.1723648999996,326.1723648999996,326.1723648999996,326.7574190999985,y,1,0.56799570000112,None,,233364,001,2024-09-13_14h00.00.208,friday16,2024.1.5,None,2024-09-13 14h00.10.081908 +0530,
RED,red,C,r,24,0,192,0,326.77245929999845,,,,,326.7601096999988,326.77245929999845,327.27308149999953,327.27308149999953,327.27308149999953,328.0412639999995,r,1,0.7560075000001234,None,,233364,001,2024-09-13_14h00.00.208,friday16,2024.1.5,None,2024-09-13 14h00.10.081908 +0530,
YELLOW,green,I,g,24,1,193,5,328.0559008,,,,,328.04399269999885,328.0559008,328.5566123999997,328.5566123999997,328.5566123999997,330.05809709999994,g,1,1.4967773999997007,None,,233364,001,2024-09-13_14h00.00.208,friday16,2024.1.5,None,2024-09-13 14h00.10.081908 +0530,
GREEN,yellow,I,y,24,2,194,6,330.07294139999976,,,,,330.06079469999895,330.07294139999976,330.57287349999933,330.57287349999933,330.57287349999933,331.24513659999866,y,1,0.6697310999988986,None,,233364,001,2024-09-13_14h00.00.208,friday16,2024.1.5,None,2024-09-13 14h00.10.081908 +0530,
YELLOW,yellow,C,y,24,3,195,4,331.27294359999905,,,,,331.25032099999953,331.27294359999905,331.7589965999996,331.7589965999996,331.7754384999989,332.34513719999995,y,1,0.5824415000006411,None,,233364,001,2024-09-13_14h00.00.208,friday16,2024.1.5,None,2024-09-13 14h00.10.081908 +0530,
BLUE,blue,C,b,24,4,196,3,332.37181280000004,,,,,332.3498813999995,332.37181280000004,332.856937999999,332.856937999999,332.8736534999989,333.9573986999985,b,1,1.0849163999992015,None,,233364,001,2024-09-13_14h00.00.208,friday16,2024.1.5,None,2024-09-13 14h00.10.081908 +0530,
GREEN,green,I,g,24,5,197,7,333.9728869999999,,,,,333.9598397999998,333.9728869999999,334.4728863,334.4728863,334.4728863,335.9596213999994,g,1,1.4829435999999987,None,,233364,001,2024-09-13_14h00.00.208,friday16,2024.1.5,None,2024-09-13 14h00.10.081908 +0530,
BLUE,red,I,r,24,6,198,2,335.98843979999947,,,,,335.9630373,335.98843979999947,336.47327659999974,336.47327659999974,336.4897745999988,337.5743700999992,r,1,1.0835618000000977,None,,233364,001,2024-09-13_14h00.00.208,friday16,2024.1.5,None,2024-09-13 14h00.10.081908 +0530,
RED,blue,I,b,24,7,199,1,337.58953719999954,,,,,337.5770412999991,337.58953719999954,338.0897701999984,338.0897701999984,338.0897701999984,339.1082394999994,b,1,1.0054313000000548,None,,233364,001,2024-09-13_14h00.00.208,friday16,2024.1.5,None,2024-09-13 14h00.10.081908 +0530,
RED,blue,I,b,25,0,200,1,339.12319639999987,,,,,339.1109755999987,339.12319639999987,339.6233132999987,339.6233132999987,339.6233132999987,340.12927279999894,b,1,0.4890802999998414,None,,233364,001,2024-09-13_14h00.00.208,friday16,2024.1.5,None,2024-09-13 14h00.10.081908 +0530,
YELLOW,yellow,C,y,25,1,201,4,340.1565609999998,,,,,340.1351505999992,340.1565609999998,340.6427692999987,340.6427692999987,340.66063229999963,341.7961986999999,y,1,1.1359655000014754,None,,233364,001,2024-09-13_14h00.00.208,friday16,2024.1.5,None,2024-09-13 14h00.10.081908 +0530,
BLUE,red,I,r,25,2,202,2,341.82320679999975,,,,,341.80201549999947,341.82320679999975,342.3096226999987,342.3096226999987,342.3255616999995,344.06292719999874,r,1,1.7489764000001742,None,,233364,001,2024-09-13_14h00.00.208,friday16,2024.1.5,None,2024-09-13 14h00.10.081908 +0530,
GREEN,yellow,I,y,25,3,203,6,344.0903557999991,,,,,344.0687788999985,344.0903557999991,344.5904329999994,344.5904329999994,344.60948389999976,346.2617569999984,y,1,1.6536925999989762,None,,233364,001,2024-09-13_14h00.00.208,friday16,2024.1.5,None,2024-09-13 14h00.10.081908 +0530,
RED,red,C,r,25,4,204,0,346.29041719999987,,,,,346.2679294999998,346.29041719999987,346.77569799999947,346.77569799999947,346.79320089999965,347.4959074999988,r,1,0.7043293999995512,None,,233364,001,2024-09-13_14h00.00.208,friday16,2024.1.5,None,2024-09-13 14h00.10.081908 +0530,
BLUE,blue,C,b,25,5,205,3,347.52384170000005,,,,,347.50176529999953,347.52384170000005,348.0099793999998,348.0099793999998,348.02652359999956,348.6625967,g,0,0.6465654000003269,None,,233364,001,2024-09-13_14h00.00.208,friday16,2024.1.5,None,2024-09-13 14h00.10.081908 +0530,
YELLOW,green,I,g,25,6,206,5,348.69045430000006,,,,,348.66854579999927,348.69045430000006,349.1904063999991,349.1904063999991,349.20984749999843,352.44710209999903,y,0,3.252136099999916,None,,233364,001,2024-09-13_14h00.00.208,friday16,2024.1.5,None,2024-09-13 14h00.10.081908 +0530,
GREEN,green,I,g,25,7,207,7,352.47297660000004,,,,,352.4532438999995,352.47297660000004,352.95973520000007,352.95973520000007,352.97601439999926,354.295800599999,g,1,1.320667300000423,None,,233364,001,2024-09-13_14h00.00.208,friday16,2024.1.5,None,2024-09-13 14h00.10.081908 +0530,
YELLOW,yellow,C,y,26,0,208,4,354.3230408999989,,,,,354.30174709999847,354.3230408999989,354.8241388999995,354.8241388999995,354.84249089999867,356.02963739999905,y,1,1.196654999999737,None,,233364,001,2024-09-13_14h00.00.208,friday16,2024.1.5,None,2024-09-13 14h00.10.081908 +0530,
YELLOW,green,I,g,26,1,209,5,356.05722349999996,,,,,356.03544749999855,356.05722349999996,356.5427044999997,356.5427044999997,356.55943489999845,357.87888909999856,g,1,1.329722700000275,None,,233364,001,2024-09-13_14h00.00.208,friday16,2024.1.5,None,2024-09-13 14h00.10.081908 +0530,
BLUE,red,I,r,26,2,210,2,357.9068841999997,,,,,357.88473069999964,357.9068841999997,358.3933350999996,358.3933350999996,358.40938639999877,359.3128522999996,b,0,0.9125807999989775,None,,233364,001,2024-09-13_14h00.00.208,friday16,2024.1.5,None,2024-09-13 14h00.10.081908 +0530,
RED,red,C,r,26,3,211,0,359.3403684999994,,,,,359.31898049999836,359.3403684999994,359.84068429999934,359.84068429999934,359.8597676999998,360.7290727999989,r,1,0.8699895000008837,None,,233364,001,2024-09-13_14h00.00.208,friday16,2024.1.5,None,2024-09-13 14h00.10.081908 +0530,
GREEN,yellow,I,y,26,4,212,6,360.75674230000004,,,,,360.73506629999974,360.75674230000004,361.2570745999983,361.2570745999983,361.275637499999,362.4627107999986,y,1,1.192152099998566,None,,233364,001,2024-09-13_14h00.00.208,friday16,2024.1.5,None,2024-09-13 14h00.10.081908 +0530,
BLUE,blue,C,b,26,5,213,3,362.4902672999997,,,,,362.4686778999985,362.4902672999997,362.97582129999864,362.97582129999864,362.9925973999998,363.74661079999896,b,1,0.7642006000005495,None,,233364,001,2024-09-13_14h00.00.208,friday16,2024.1.5,None,2024-09-13 14h00.10.081908 +0530,
RED,blue,I,b,26,6,214,1,363.7738326999988,,,,,363.75241259999893,363.7738326999988,364.2591898999999,364.2591898999999,364.2760023999999,367.05799789999946,b,1,2.7853120999989187,None,,233364,001,2024-09-13_14h00.00.208,friday16,2024.1.5,None,2024-09-13 14h00.10.081908 +0530,
GREEN,green,I,g,26,7,215,7,367.0731734000001,,,,,367.06074719999924,367.0731734000001,367.574353,367.574353,367.5929863000001,368.6802037999987,g,1,1.1020635000004404,None,,233364,001,2024-09-13_14h00.00.208,friday16,2024.1.5,None,2024-09-13 14h00.10.081908 +0530,
BLUE,blue,C,b,27,0,216,3,368.7066825999991,,,,,368.68627899999956,368.7066825999991,369.19268139999986,369.19268139999986,369.20916359999865,370.6453160000001,b,1,1.4425145000004704,None,,233364,001,2024-09-13_14h00.00.208,friday16,2024.1.5,None,2024-09-13 14h00.10.081908 +0530,
YELLOW,green,I,g,27,1,217,5,370.67373419999967,,,,,370.6513707999984,370.67373419999967,371.1739682999996,371.1739682999996,371.1928833999991,371.8790431999987,g,1,0.6944383999998536,None,,233364,001,2024-09-13_14h00.00.208,friday16,2024.1.5,None,2024-09-13 14h00.10.081908 +0530,
RED,red,C,r,27,2,218,0,371.9073200999992,,,,,371.8851894999989,371.9073200999992,372.40782450000006,372.40782450000006,372.4259164999985,373.06297469999845,r,1,0.6489352000007784,None,,233364,001,2024-09-13_14h00.00.208,friday16,2024.1.5,None,2024-09-13 14h00.10.081908 +0530,
BLUE,red,I,r,27,3,219,2,373.0902146999997,,,,,373.0687928999996,373.0902146999997,373.5754668999998,373.5754668999998,373.5922845999994,377.030377699999,r,1,3.439177899999777,None,,233364,001,2024-09-13_14h00.00.208,friday16,2024.1.5,None,2024-09-13 14h00.10.081908 +0530,
GREEN,yellow,I,y,27,4,220,6,377.0571076999986,,,,,377.0362091999996,377.0571076999986,377.54219379999995,377.54219379999995,377.5592769999985,379.3294017999997,y,1,1.771944000000076,None,,233364,001,2024-09-13_14h00.00.208,friday16,2024.1.5,None,2024-09-13 14h00.10.081908 +0530,
GREEN,green,I,g,27,5,221,7,379.3573471999989,,,,,379.3352524999991,379.3573471999989,379.84294129999944,379.84294129999944,379.86012499999924,380.4456922999998,g,1,0.591678700000557,None,,233364,001,2024-09-13_14h00.00.208,friday16,2024.1.5,None,2024-09-13 14h00.10.081908 +0530,
YELLOW,yellow,C,y,27,6,222,4,380.47397589999855,,,,,380.45168009999907,380.47397589999855,380.95878769999945,380.95878769999945,380.97571099999914,381.64507049999884,y,1,0.6786362000002555,None,,233364,001,2024-09-13_14h00.00.208,friday16,2024.1.5,None,2024-09-13 14h00.10.081908 +0530,
RED,blue,I,b,27,7,223,1,381.67335939999975,,,,,381.65039589999833,381.67335939999975,382.1595405999997,382.1595405999997,382.1757596999996,383.6126390999998,b,1,1.4459371999982977,None,,233364,001,2024-09-13_14h00.00.208,friday16,2024.1.5,None,2024-09-13 14h00.10.081908 +0530,
RED,blue,I,b,28,0,224,1,383.64067519999844,,,,,383.6188114999986,383.64067519999844,384.1263536999995,384.1263536999995,384.1429264999988,384.64717159999964,b,1,0.5148673999992752,None,,233364,001,2024-09-13_14h00.00.208,friday16,2024.1.5,None,2024-09-13 14h00.10.081908 +0530,
BLUE,blue,C,b,28,1,225,3,384.6736241999988,,,,,384.6529276000001,384.6736241999988,385.1588991999997,385.1588991999997,385.1765771999999,385.729249,b,1,0.5524924000001192,None,,233364,001,2024-09-13_14h00.00.208,friday16,2024.1.5,None,2024-09-13 14h00.10.081908 +0530,
YELLOW,yellow,C,y,28,2,226,4,385.75685469999917,,,,,385.7352835999991,385.75685469999917,386.2574834999996,386.2574834999996,386.2756881999994,387.26303369999914,y,1,0.9978448000001663,None,,233364,001,2024-09-13_14h00.00.208,friday16,2024.1.5,None,2024-09-13 14h00.10.081908 +0530,
BLUE,red,I,r,28,3,227,2,387.29047099999843,,,,,387.2690214999984,387.29047099999843,387.7907409999989,387.7907409999989,387.80967639999835,388.4790920999985,r,1,0.6798132000003534,None,,233364,001,2024-09-13_14h00.00.208,friday16,2024.1.5,None,2024-09-13 14h00.10.081908 +0530,
RED,red,C,r,28,4,228,0,388.507338899999,,,,,388.48490129999846,388.507338899999,388.99232539999866,388.99232539999866,389.0097017999997,389.74631210000007,r,1,0.7505086000001029,None,,233364,001,2024-09-13_14h00.00.208,friday16,2024.1.5,None,2024-09-13 14h00.10.081908 +0530,
GREEN,yellow,I,y,28,5,229,6,389.7737699999998,,,,,389.7523003999995,389.7737699999998,390.258830499999,390.258830499999,390.2762527999985,391.59663,y,1,1.3274792000011075,None,,233364,001,2024-09-13_14h00.00.208,friday16,2024.1.5,None,2024-09-13 14h00.10.081908 +0530,
GREEN,green,I,g,28,6,230,7,391.6240229999985,,,,,391.60253249999914,391.6240229999985,392.1099484999995,392.1099484999995,392.1260356999992,392.68017269999837,g,1,0.5657202999991569,None,,233364,001,2024-09-13_14h00.00.208,friday16,2024.1.5,None,2024-09-13 14h00.10.081908 +0530,
YELLOW,green,I,g,28,7,231,5,392.7075103999996,,,,,392.6859725999984,392.7075103999996,393.20705909999924,393.20705909999924,393.22590390000005,394.0633218999992,g,1,0.8514021000009961,None,,233364,001,2024-09-13_14h00.00.208,friday16,2024.1.5,None,2024-09-13 14h00.10.081908 +0530,
YELLOW,yellow,C,y,29,0,232,4,394.09054819999983,,,,,394.0691210999994,394.09054819999983,394.5902391999989,394.5902391999989,394.60923509999884,395.2127169999985,y,1,0.6154342999998335,None,,233364,001,2024-09-13_14h00.00.208,friday16,2024.1.5,None,2024-09-13 14h00.10.081908 +0530,
BLUE,blue,C,b,29,1,233,3,395.2410439999985,,,,,395.219111299999,395.2410439999985,395.7409697999992,395.7409697999992,395.7595930999996,396.5956725999986,b,1,0.8408316000004561,None,,233364,001,2024-09-13_14h00.00.208,friday16,2024.1.5,None,2024-09-13 14h00.10.081908 +0530,
RED,red,C,r,29,2,234,0,396.62382889999935,,,,,396.6016843999987,396.62382889999935,397.10887529999854,397.10887529999854,397.12573059999886,397.5791343000001,r,1,0.46258859999943525,None,,233364,001,2024-09-13_14h00.00.208,friday16,2024.1.5,None,2024-09-13 14h00.10.081908 +0530,
GREEN,yellow,I,y,29,3,235,6,397.60713140000007,,,,,397.5849158000001,397.60713140000007,398.0924051999991,398.0924051999991,398.10966779999944,398.7962319999988,y,1,0.700743199999124,None,,233364,001,2024-09-13_14h00.00.208,friday16,2024.1.5,None,2024-09-13 14h00.10.081908 +0530,
GREEN,green,I,g,29,4,236,7,398.82384849999835,,,,,398.8022923999997,398.82384849999835,399.308866899999,399.308866899999,399.32607370000005,399.7985652999996,g,1,0.4831345999991754,None,,233364,001,2024-09-13_14h00.00.208,friday16,2024.1.5,None,2024-09-13 14h00.10.081908 +0530,
RED,blue,I,b,29,5,237,1,399.84077499999876,,,,,399.8046581999988,399.84077499999876,400.3243332999991,400.3243332999991,400.3427340999988,401.7290202999993,b,1,1.3967690999998013,None,,233364,001,2024-09-13_14h00.00.208,friday16,2024.1.5,None,2024-09-13 14h00.10.081908 +0530,
YELLOW,green,I,g,29,6,238,5,401.75709279999865,,,,,401.7349474999992,401.75709279999865,402.25720889999866,402.25720889999866,402.2765241999987,403.11271449999913,g,1,0.8374253999991197,None,,233364,001,2024-09-13_14h00.00.208,friday16,2024.1.5,None,2024-09-13 14h00.10.081908 +0530,
BLUE,red,I,r,29,7,239,2,403.1407331999999,,,,,403.1187898999997,403.1407331999999,403.62656309999875,403.62656309999875,403.64303649999965,404.296843099999,r,1,0.6642602000010811,None,,233364,001,2024-09-13_14h00.00.208,friday16,2024.1.5,None,2024-09-13 14h00.10.081908 +0530,
RED,blue,I,b,30,0,240,1,404.3240544,,,,,404.30267149999963,404.3240544,404.8092766999998,404.8092766999998,404.8265539999993,406.02883759999895,b,1,1.2103103999997984,None,,233364,001,2024-09-13_14h00.00.208,friday16,2024.1.5,None,2024-09-13 14h00.10.081908 +0530,
BLUE,blue,C,b,30,1,241,3,406.0571801999995,,,,,406.03484429999844,406.0571801999995,406.5424011999985,406.5424011999985,406.5592708999993,407.09625139999844,g,0,0.5365421999995306,None,,233364,001,2024-09-13_14h00.00.208,friday16,2024.1.5,None,2024-09-13 14h00.10.081908 +0530,
YELLOW,yellow,C,y,30,2,242,4,407.1240607999989,,,,,407.10207079999964,407.1240607999989,407.6238801999989,407.6238801999989,407.6427845999988,408.32953129999987,y,1,0.690448400000605,None,,233364,001,2024-09-13_14h00.00.208,friday16,2024.1.5,None,2024-09-13 14h00.10.081908 +0530,
RED,red,C,r,30,3,243,0,408.357607599999,,,,,408.3354049999998,408.357607599999,408.84368639999957,408.84368639999957,408.8599175999989,409.8958161999999,r,1,1.0438166000003548,None,,233364,001,2024-09-13_14h00.00.208,friday16,2024.1.5,None,2024-09-13 14h00.10.081908 +0530,
GREEN,green,I,g,30,4,244,7,409.92489359999854,,,,,409.9018098999986,409.92489359999854,410.42465300000003,410.42465300000003,410.44843259999834,411.5964269999986,g,1,1.1570672000016202,None,,233364,001,2024-09-13_14h00.00.208,friday16,2024.1.5,None,2024-09-13 14h00.10.081908 +0530,
YELLOW,green,I,g,30,5,245,5,411.62360049999916,,,,,411.6028379999989,411.62360049999916,412.1093239999991,412.1093239999991,412.1265685999988,412.77908879999995,g,1,0.6519962000002124,None,,233364,001,2024-09-13_14h00.00.208,friday16,2024.1.5,None,2024-09-13 14h00.10.081908 +0530,
GREEN,yellow,I,y,30,6,246,6,412.80733299999883,,,,,412.78487629999836,412.80733299999883,413.29287179999847,413.29287179999847,413.30975619999845,413.8122582999986,y,1,0.5027182999983779,None,,233364,001,2024-09-13_14h00.00.208,friday16,2024.1.5,None,2024-09-13 14h00.10.081908 +0530,
BLUE,red,I,r,30,7,247,2,413.84056129999954,,,,,413.81844079999973,413.84056129999954,414.3257075999991,414.3257075999991,414.3431069999988,414.9134876999997,r,1,0.5845198999995773,None,,233364,001,2024-09-13_14h00.00.208,friday16,2024.1.5,None,2024-09-13 14h00.10.081908 +0530,
YELLOW,green,I,g,31,0,248,5,414.9406945999999,,,,,414.9193043999985,414.9406945999999,415.4409650999987,415.4409650999987,415.45974709999973,416.7628191999993,g,1,1.3150366999998369,None,,233364,001,2024-09-13_14h00.00.208,friday16,2024.1.5,None,2024-09-13 14h00.10.081908 +0530,
YELLOW,yellow,C,y,31,1,249,4,416.79051699999945,,,,,416.7689864999993,416.79051699999945,417.2765051999995,417.2765051999995,417.2931998999993,417.9128103999992,y,1,0.63307739999982,None,,233364,001,2024-09-13_14h00.00.208,friday16,2024.1.5,None,2024-09-13 14h00.10.081908 +0530,
BLUE,blue,C,b,31,2,250,3,417.9404623999999,,,,,417.9185948999984,417.9404623999999,418.42588389999946,418.42588389999946,418.44323129999975,419.0128543999999,b,1,0.5765379000004032,None,,233364,001,2024-09-13_14h00.00.208,friday16,2024.1.5,None,2024-09-13 14h00.10.081908 +0530,
RED,blue,I,b,31,3,251,1,419.04075190000003,,,,,419.01894769999853,419.04075190000003,419.5407871999996,419.5407871999996,419.5596472999987,420.3470897999996,b,1,0.799899200001164,None,,233364,001,2024-09-13_14h00.00.208,friday16,2024.1.5,None,2024-09-13 14h00.10.081908 +0530,
GREEN,yellow,I,y,31,4,252,6,420.3741308999997,,,,,420.35286669999914,420.3741308999997,420.8743012999985,420.8743012999985,420.8929713999987,422.59620859999995,y,1,1.716044699998747,None,,233364,001,2024-09-13_14h00.00.208,friday16,2024.1.5,None,2024-09-13 14h00.10.081908 +0530,
GREEN,green,I,g,31,5,253,7,422.62385129999893,,,,,422.60233379999954,422.62385129999893,423.1089678999997,423.1089678999997,423.12584289999904,423.730163799999,g,1,0.6102652999998099,None,,233364,001,2024-09-13_14h00.00.208,friday16,2024.1.5,None,2024-09-13 14h00.10.081908 +0530,
BLUE,red,I,r,31,6,254,2,423.7572416999992,,,,,423.7369558999999,423.7572416999992,424.2427270999997,424.2427270999997,424.2595410999984,424.8955572999985,r,1,0.6362431999987166,None,,233364,001,2024-09-13_14h00.00.208,friday16,2024.1.5,None,2024-09-13 14h00.10.081908 +0530,
RED,red,C,r,31,7,255,0,424.9239762999987,,,,,424.90137979999963,424.9239762999987,425.40968579999935,425.40968579999935,425.4263749999991,425.94665929999974,r,1,0.5313540999995894,None,,233364,001,2024-09-13_14h00.00.208,friday16,2024.1.5,None,2024-09-13 14h00.10.081908 +0530,
YELLOW,yellow,C,y,32,0,256,4,425.97356299999956,,,,,425.95274979999886,425.97356299999956,426.473611899999,426.473611899999,426.492510099999,427.21281289999934,y,1,0.7243218999992678,None,,233364,001,2024-09-13_14h00.00.208,friday16,2024.1.5,None,2024-09-13 14h00.10.081908 +0530,
GREEN,yellow,I,y,32,1,257,6,427.24032309999893,,,,,427.21885029999976,427.24032309999893,427.74090069999875,427.74090069999875,427.7604922999999,428.21304189999864,y,1,0.4590202999988833,None,,233364,001,2024-09-13_14h00.00.208,friday16,2024.1.5,None,2024-09-13 14h00.10.081908 +0530,
RED,red,C,r,32,2,258,0,428.2407241000001,,,,,428.21915439999975,428.2407241000001,428.7407167000001,428.7407167000001,428.75969929999883,429.4791071999989,r,1,0.728709400000298,None,,233364,001,2024-09-13_14h00.00.208,friday16,2024.1.5,None,2024-09-13 14h00.10.081908 +0530,
GREEN,green,I,g,32,3,259,7,429.5072470999985,,,,,429.48502199999893,429.5072470999985,429.99285879999843,429.99285879999843,430.00997219999954,430.780647399999,g,1,0.7838499999998021,None,,233364,001,2024-09-13_14h00.00.208,friday16,2024.1.5,None,2024-09-13 14h00.10.081908 +0530,
BLUE,red,I,r,32,4,260,2,430.8076473000001,,,,,430.7863929999985,430.8076473000001,431.3076435999992,431.3076435999992,431.32656549999956,432.3457416000001,r,1,1.0238037999988592,None,,233364,001,2024-09-13_14h00.00.208,friday16,2024.1.5,None,2024-09-13 14h00.10.081908 +0530,
BLUE,blue,C,b,32,5,261,3,432.37384369999927,,,,,432.35147679999864,432.37384369999927,432.8602443999989,432.8602443999989,432.8769236999997,433.9788534999989,b,1,1.1049444000000221,None,,233364,001,2024-09-13_14h00.00.208,friday16,2024.1.5,None,2024-09-13 14h00.10.081908 +0530,
RED,blue,I,b,32,6,262,1,434.007462399999,,,,,433.98475379999945,434.007462399999,434.5074188999988,434.5074188999988,434.5265172999989,435.0468519999995,b,1,0.5311514000004536,None,,233364,001,2024-09-13_14h00.00.208,friday16,2024.1.5,None,2024-09-13 14h00.10.081908 +0530,
YELLOW,green,I,g,32,7,263,5,435.0910017999995,,,,,435.0528915999985,435.0910017999995,435.5594869999986,435.5594869999986,435.61028049999913,437.9131101999992,g,1,2.3481157000005624,None,,233364,001,2024-09-13_14h00.00.208,friday16,2024.1.5,None,2024-09-13 14h00.10.081908 +0530,
BLUE,red,I,r,33,0,264,2,437.9406695999987,,,,,437.91918389999955,437.9406695999987,438.42601599999944,438.42601599999944,438.4437171999998,441.0960572999993,r,1,2.6616259000002174,None,,233364,001,2024-09-13_14h00.00.208,friday16,2024.1.5,None,2024-09-13 14h00.10.081908 +0530,
BLUE,blue,C,b,33,1,265,3,441.12407879999955,,,,,441.1018566999992,441.12407879999955,441.6098915999992,441.6098915999992,441.62582939999993,442.1790115999993,b,1,0.5617629999997007,None,,233364,001,2024-09-13_14h00.00.208,friday16,2024.1.5,None,2024-09-13 14h00.10.081908 +0530,
RED,red,C,r,33,2,266,0,442.20738789999996,,,,,442.1848450999987,442.20738789999996,442.692769199999,442.692769199999,442.709315099999,443.31257279999954,r,1,0.6032372000008763,None,,233364,001,2024-09-13_14h00.00.208,friday16,2024.1.5,None,2024-09-13 14h00.10.081908 +0530,
RED,blue,I,b,33,3,267,1,443.3410054999986,,,,,443.31863899999917,443.3410054999986,443.82699299999877,443.82699299999877,443.84373029999915,444.46197889999894,r,0,0.6206829999991896,None,,233364,001,2024-09-13_14h00.00.208,friday16,2024.1.5,None,2024-09-13 14h00.10.081908 +0530,
YELLOW,green,I,g,33,4,268,5,444.49038239999936,,,,,444.4670294999996,444.49038239999936,444.9758133999985,444.9758133999985,444.9931001999994,447.06321409999873,g,1,2.080679400000008,None,,233364,001,2024-09-13_14h00.00.208,friday16,2024.1.5,None,2024-09-13 14h00.10.081908 +0530,
GREEN,yellow,I,y,33,5,269,6,447.107254999999,,,,,447.069379999999,447.107254999999,447.59059869999874,447.59059869999874,447.60978649999925,448.91339739999967,y,1,1.3138358000014705,None,,233364,001,2024-09-13_14h00.00.208,friday16,2024.1.5,None,2024-09-13 14h00.10.081908 +0530,
GREEN,green,I,g,33,6,270,7,448.9407276999991,,,,,448.9195060999991,448.9407276999991,449.4257581999991,449.4257581999991,449.4424997999995,450.49563249999846,g,1,1.0546121999996103,None,,233364,001,2024-09-13_14h00.00.208,friday16,2024.1.5,None,2024-09-13 14h00.10.081908 +0530,
YELLOW,yellow,C,y,33,7,271,4,450.5239170999994,,,,,450.50238269999863,450.5239170999994,451.0090119999986,451.0090119999986,451.02648169999884,452.4125789999998,y,1,1.3872445999986667,None,,233364,001,2024-09-13_14h00.00.208,friday16,2024.1.5,None,2024-09-13 14h00.10.081908 +0530,
YELLOW,green,I,g,34,0,272,5,452.4406393999998,,,,,452.41860180000003,452.4406393999998,452.9405670999986,452.9405670999986,452.9595967999994,453.5457805999995,y,0,0.5885330000000977,None,,233364,001,2024-09-13_14h00.00.208,friday16,2024.1.5,None,2024-09-13 14h00.10.081908 +0530,
GREEN,yellow,I,y,34,1,273,6,453.57370509999964,,,,,453.5515368999986,453.57370509999964,454.0738043000001,454.0738043000001,454.0929348999998,454.8963619999995,g,0,0.8060088000001997,None,,233364,001,2024-09-13_14h00.00.208,friday16,2024.1.5,None,2024-09-13 14h00.10.081908 +0530,
BLUE,blue,C,b,34,2,274,3,454.9238828999987,,,,,454.90237139999954,454.9238828999987,455.4095535999986,455.4095535999986,455.4262020999995,456.6298393999987,b,1,1.2104902999999467,None,,233364,001,2024-09-13_14h00.00.208,friday16,2024.1.5,None,2024-09-13 14h00.10.081908 +0530,
YELLOW,yellow,C,y,34,3,275,4,456.65706580000005,,,,,456.63609069999984,456.65706580000005,457.1424130999985,457.1424130999985,457.15937510000003,459.5469800999999,y,1,2.401386300000013,None,,233364,001,2024-09-13_14h00.00.208,friday16,2024.1.5,None,2024-09-13 14h00.10.081908 +0530,
RED,blue,I,b,34,4,276,1,459.5740601999987,,,,,459.55300389999866,459.5740601999987,460.0595066999995,460.0595066999995,460.07743539999865,461.32919129999937,b,1,1.2513949000003777,None,,233364,001,2024-09-13_14h00.00.208,friday16,2024.1.5,None,2024-09-13 14h00.10.081908 +0530,
GREEN,green,I,g,34,5,277,7,461.35706429999846,,,,,461.33497179999904,461.35706429999846,461.85782279999876,461.85782279999876,461.8760341999987,462.5796242999986,g,1,0.7122696999995242,None,,233364,001,2024-09-13_14h00.00.208,friday16,2024.1.5,None,2024-09-13 14h00.10.081908 +0530,
RED,red,C,r,34,6,278,0,462.6080809999985,,,,,462.585591699999,462.6080809999985,463.09275479999997,463.09275479999997,463.10973249999915,463.6794807999995,r,1,0.5726176999996824,None,,233364,001,2024-09-13_14h00.00.208,friday16,2024.1.5,None,2024-09-13 14h00.10.081908 +0530,
BLUE,red,I,r,34,7,279,2,463.7073999999993,,,,,463.68563619999986,463.7073999999993,464.2072372999992,464.2072372999992,464.22727229999873,465.51238059999923,r,1,1.290958800000226,None,,233364,001,2024-09-13_14h00.00.208,friday16,2024.1.5,None,2024-09-13 14h00.10.081908 +0530,
BLUE,blue,C,b,35,0,280,3,465.5405637999993,,,,,465.51849369999945,465.5405637999993,466.02607389999866,466.02607389999866,466.0430746999991,467.04721829999835,b,1,1.016652599999361,None,,233364,001,2024-09-13_14h00.00.208,friday16,2024.1.5,None,2024-09-13 14h00.10.081908 +0530,
RED,red,C,r,35,1,281,0,467.0743547999991,,,,,467.053227299999,467.0743547999991,467.5743649999986,467.5743649999986,467.59325179999905,468.4625614999986,r,1,0.8791509000002407,None,,233364,001,2024-09-13_14h00.00.208,friday16,2024.1.5,None,2024-09-13 14h00.10.081908 +0530,
YELLOW,green,I,g,35,2,282,5,468.4901909,,,,,468.46840489999886,468.4901909,468.99089789999925,468.99089789999925,469.0095003999995,469.67952109999896,g,1,0.6767515999999887,None,,233364,001,2024-09-13_14h00.00.208,friday16,2024.1.5,None,2024-09-13 14h00.10.081908 +0530,
BLUE,red,I,r,35,3,283,2,469.707318499999,,,,,469.68539299999975,469.707318499999,470.2077026999996,470.2077026999996,470.22650639999847,472.0140868999988,r,1,1.8002311999989615,None,,233364,001,2024-09-13_14h00.00.208,friday16,2024.1.5,None,2024-09-13 14h00.10.081908 +0530,
YELLOW,yellow,C,y,35,4,284,4,472.0575012999998,,,,,472.02034319999984,472.0575012999998,472.5414829000001,472.5414829000001,472.55974289999904,473.2793671999989,y,1,0.733790800000861,None,,233364,001,2024-09-13_14h00.00.208,friday16,2024.1.5,None,2024-09-13 14h00.10.081908 +0530,
GREEN,yellow,I,y,35,5,285,6,473.30714759999864,,,,,473.28542989999914,473.30714759999864,473.79250089999914,473.79250089999914,473.8100024999985,474.5637193999992,y,1,0.765371999999843,None,,233364,001,2024-09-13_14h00.00.208,friday16,2024.1.5,None,2024-09-13 14h00.10.081908 +0530,
GREEN,green,I,g,35,6,286,7,474.59047739999914,,,,,474.56971109999904,474.59047739999914,475.0765875999987,475.0765875999987,475.0934970999988,475.7299504999992,g,1,0.6370325999996567,None,,233364,001,2024-09-13_14h00.00.208,friday16,2024.1.5,None,2024-09-13 14h00.10.081908 +0530,
RED,blue,I,b,35,7,287,1,475.7576534999989,,,,,475.7359174999983,475.7576534999989,476.2578599999997,476.2578599999997,476.27671889999874,477.51275949999945,b,1,1.251279699999941,None,,233364,001,2024-09-13_14h00.00.208,friday16,2024.1.5,None,2024-09-13 14h00.10.081908 +0530,
YELLOW,yellow,C,y,36,0,288,4,477.5407611999999,,,,,477.5186570999995,477.5407611999999,478.0263712999986,478.0263712999986,478.04270409999845,478.5797941000001,y,1,0.548127599999134,None,,233364,001,2024-09-13_14h00.00.208,friday16,2024.1.5,None,2024-09-13 14h00.10.081908 +0530,
BLUE,blue,C,b,36,1,289,3,478.6078201,,,,,478.5856219999987,478.6078201,479.10769309999887,479.10769309999887,479.126796999999,481.6123195,b,1,2.497145299999829,None,,233364,001,2024-09-13_14h00.00.208,friday16,2024.1.5,None,2024-09-13 14h00.10.081908 +0530,
GREEN,yellow,I,y,36,2,290,6,481.64100359999975,,,,,481.61812589999863,481.64100359999975,482.1410630999999,482.1410630999999,482.1598725999993,483.44600739999987,y,1,1.2896507999994355,None,,233364,001,2024-09-13_14h00.00.208,friday16,2024.1.5,None,2024-09-13 14h00.10.081908 +0530,
YELLOW,green,I,g,36,3,291,5,483.4740494999987,,,,,483.45183670000006,483.4740494999987,483.96017439999923,483.96017439999923,483.9769817999986,484.96335799999906,g,1,0.9945913000010478,None,,233364,001,2024-09-13_14h00.00.208,friday16,2024.1.5,None,2024-09-13 14h00.10.081908 +0530,
RED,red,C,r,36,4,292,0,484.99080719999984,,,,,484.96919349999916,484.99080719999984,485.47596319999866,485.47596319999866,485.4925983999983,486.86263639999925,r,1,1.378286000001026,None,,233364,001,2024-09-13_14h00.00.208,friday16,2024.1.5,None,2024-09-13 14h00.10.081908 +0530,
BLUE,red,I,r,36,5,293,2,486.8905036999986,,,,,486.86862569999903,486.8905036999986,487.3908703999987,487.3908703999987,487.4104811999987,489.1305457999988,b,0,1.7362056999991182,None,,233364,001,2024-09-13_14h00.00.208,friday16,2024.1.5,None,2024-09-13 14h00.10.081908 +0530,
GREEN,green,I,g,36,6,294,7,489.15699959999984,,,,,489.1365031999994,489.15699959999984,489.6573445999984,489.6573445999984,489.67586759999904,491.3135523000001,g,1,1.639513000000079,None,,233364,001,2024-09-13_14h00.00.208,friday16,2024.1.5,None,2024-09-13 14h00.10.081908 +0530,
RED,blue,I,b,36,7,295,1,491.3407475999993,,,,,491.31959949999873,491.3407475999993,491.8264292999993,491.8264292999993,491.8430257,492.9792579999994,r,0,1.1428340000002208,None,,233364,001,2024-09-13_14h00.00.208,friday16,2024.1.5,None,2024-09-13 14h00.10.081908 +0530,
RED,red,C,r,37,0,296,0,493.0074158999996,,,,,492.98512129999835,493.0074158999996,493.49251229999936,493.49251229999936,493.509145,494.74740739999834,r,1,1.2462125000001834,None,,233364,001,2024-09-13_14h00.00.208,friday16,2024.1.5,None,2024-09-13 14h00.10.081908 +0530,
GREEN,yellow,I,y,37,1,297,6,494.77393109999866,,,,,494.75316009999915,494.77393109999866,495.27494509999997,495.27494509999997,495.2935103999989,496.6142586999995,g,0,1.3332816000001912,None,,233364,001,2024-09-13_14h00.00.208,friday16,2024.1.5,None,2024-09-13 14h00.10.081908 +0530,
BLUE,red,I,r,37,2,298,2,496.6408640999998,,,,,496.62020949999896,496.6408640999998,497.1262265999994,497.1262265999994,497.1426275999984,498.1301317999987,b,0,0.994021900000007,None,,233364,001,2024-09-13_14h00.00.208,friday16,2024.1.5,None,2024-09-13 14h00.10.081908 +0530,
RED,blue,I,b,37,3,299,1,498.15692859999945,,,,,498.1361729,498.15692859999945,498.6424724999997,498.6424724999997,498.6592191,499.9476664999984,b,1,1.2943367999996553,None,,233364,001,2024-09-13_14h00.00.208,friday16,2024.1.5,None,2024-09-13 14h00.10.081908 +0530,
BLUE,blue,C,b,37,4,300,3,499.9740512999997,,,,,499.9535294999987,499.9740512999997,500.4595924999994,500.4595924999994,500.47643379999863,501.32980079999834,b,1,0.8644765999997617,None,,233364,001,2024-09-13_14h00.00.208,friday16,2024.1.5,None,2024-09-13 14h00.10.081908 +0530,
GREEN,green,I,g,37,5,301,7,501.3572101999998,,,,,501.3358938000001,501.3572101999998,501.84291159999884,501.84291159999884,501.8592992999984,502.82921239999996,g,1,0.9757585999996081,None,,233364,001,2024-09-13_14h00.00.208,friday16,2024.1.5,None,2024-09-13 14h00.10.081908 +0530,
YELLOW,yellow,C,y,37,6,302,4,502.85722299999907,,,,,502.8351047999986,502.85722299999907,503.35800649999874,503.35800649999874,503.3755543999996,504.713033,y,1,1.3476288999991084,None,,233364,001,2024-09-13_14h00.00.208,friday16,2024.1.5,None,2024-09-13 14h00.10.081908 +0530,
YELLOW,green,I,g,37,7,303,5,504.74096629999985,,,,,504.71883799999887,504.74096629999985,505.22658779999983,505.22658779999983,505.2427646999986,506.27907239999877,g,1,1.0392549999996845,None,,233364,001,2024-09-13_14h00.00.208,friday16,2024.1.5,None,2024-09-13 14h00.10.081908 +0530,
BLUE,red,I,r,38,0,304,2,506.30677099999957,,,,,506.2849288999987,506.30677099999957,506.80760349999946,506.80760349999946,506.8267447999988,507.6464648000001,r,1,0.8301272999997309,None,,233364,001,2024-09-13_14h00.00.208,friday16,2024.1.5,None,2024-09-13 14h00.10.081908 +0530,
RED,blue,I,b,38,1,305,1,507.67408780000005,,,,,507.6522509999995,507.67408780000005,508.1753699000001,508.1753699000001,508.193420399999,509.1794719999998,b,1,1.0007900999989943,None,,233364,001,2024-09-13_14h00.00.208,friday16,2024.1.5,None,2024-09-13 14h00.10.081908 +0530,
BLUE,blue,C,b,38,2,306,3,509.20791259999896,,,,,509.1854876999987,509.20791259999896,509.6928395999985,509.6928395999985,509.7101890999984,510.29580409999835,b,1,0.5863425999996252,None,,233364,001,2024-09-13_14h00.00.208,friday16,2024.1.5,None,2024-09-13 14h00.10.081908 +0530,
GREEN,yellow,I,y,38,3,307,6,510.3240208999996,,,,,510.3015872999986,510.3240208999996,510.82453369999894,510.82453369999894,510.8431967999986,513.0634288000001,y,1,2.23295010000038,None,,233364,001,2024-09-13_14h00.00.208,friday16,2024.1.5,None,2024-09-13 14h00.10.081908 +0530,
YELLOW,yellow,C,y,38,4,308,4,513.1071493,,,,,513.0694437999991,513.1071493,513.5764626,513.5764626,513.6259848999998,514.046599199999,y,1,0.45450569999957224,None,,233364,001,2024-09-13_14h00.00.208,friday16,2024.1.5,None,2024-09-13 14h00.10.081908 +0530,
GREEN,green,I,g,38,5,309,7,514.0739724999985,,,,,514.0523928999992,514.0739724999985,514.5739687999994,514.5739687999994,514.5928363999992,515.1301835999984,g,1,0.543662600000971,None,,233364,001,2024-09-13_14h00.00.208,friday16,2024.1.5,None,2024-09-13 14h00.10.081908 +0530,
YELLOW,green,I,g,38,6,310,5,515.1575755999984,,,,,515.1363462999998,515.1575755999984,515.6434880999986,515.6434880999986,515.6597876999986,517.4288989999986,g,1,1.7671988000001875,None,,233364,001,2024-09-13_14h00.00.208,friday16,2024.1.5,None,2024-09-13 14h00.10.081908 +0530,
RED,red,C,r,38,7,311,0,517.457210999999,,,,,517.4353495999985,517.457210999999,517.957708599999,517.957708599999,517.9760559999995,518.6462735999994,r,1,0.6765971000004356,None,,233364,001,2024-09-13_14h00.00.208,friday16,2024.1.5,None,2024-09-13 14h00.10.081908 +0530,
YELLOW,green,I,g,39,0,312,5,518.6739383999993,,,,,518.6520287999992,518.6739383999993,519.1602330999995,519.1602330999995,519.1765130999993,520.3971453999984,g,1,1.2324081999995542,None,,233364,001,2024-09-13_14h00.00.208,friday16,2024.1.5,None,2024-09-13 14h00.10.081908 +0530,
GREEN,yellow,I,y,39,1,313,6,520.4238432999991,,,,,520.4029949999986,520.4238432999991,520.9102150999988,520.9102150999988,520.9264452999996,521.4963892999986,y,1,0.5715390000004845,None,,233364,001,2024-09-13_14h00.00.208,friday16,2024.1.5,None,2024-09-13 14h00.10.081908 +0530,
YELLOW,yellow,C,y,39,2,314,4,521.5239836000001,,,,,521.5024312999994,521.5239836000001,522.0242488999993,522.0242488999993,522.0427402999994,522.5634494999995,y,1,0.536239500001102,None,,233364,001,2024-09-13_14h00.00.208,friday16,2024.1.5,None,2024-09-13 14h00.10.081908 +0530,
GREEN,green,I,g,39,3,315,7,522.5906095999999,,,,,522.5691730999988,522.5906095999999,523.0758841999996,523.0758841999996,523.0938119999992,523.5962907999983,g,1,0.5112908000010066,None,,233364,001,2024-09-13_14h00.00.208,friday16,2024.1.5,None,2024-09-13 14h00.10.081908 +0530,
BLUE,blue,C,b,39,4,316,3,523.6244456999993,,,,,523.6026174999988,523.6244456999993,524.1243417999995,524.1243417999995,524.1429646999986,524.9976618000001,b,1,0.8676999999988766,None,,233364,001,2024-09-13_14h00.00.208,friday16,2024.1.5,None,2024-09-13 14h00.10.081908 +0530,
BLUE,red,I,r,39,5,317,2,525.0245283999993,,,,,525.0034215999985,525.0245283999993,525.5093878999996,525.5093878999996,525.5265149999996,529.3124204999986,r,1,3.7927901999992173,None,,233364,001,2024-09-13_14h00.00.208,friday16,2024.1.5,None,2024-09-13 14h00.10.081908 +0530,
RED,red,C,r,39,6,318,0,529.3408294000001,,,,,529.3183781999996,529.3408294000001,529.8262464999989,529.8262464999989,529.8428074999993,530.5291370999985,r,1,0.6952647999987676,None,,233364,001,2024-09-13_14h00.00.208,friday16,2024.1.5,None,2024-09-13 14h00.10.081908 +0530,
RED,blue,I,b,39,7,319,1,530.5573201999996,,,,,530.5352323999996,530.5573201999996,531.0425344999985,531.0425344999985,531.0593661999992,531.9297241999993,b,1,0.8708803000008629,None,,233364,001,2024-09-13_14h00.00.208,friday16,2024.1.5,None,2024-09-13 14h00.10.081908 +0530,
YELLOW,yellow,C,y,40,0,320,4,531.9575903999994,,,,,531.9359036999995,531.9575903999994,532.4581087999995,532.4581087999995,532.4770907999991,533.4792091999989,y,1,1.009452299998884,None,,233364,001,2024-09-13_14h00.00.208,friday16,2024.1.5,None,2024-09-13 14h00.10.081908 +0530,
YELLOW,green,I,g,40,1,321,5,533.5074544999989,,,,,533.4849746,533.5074544999989,533.9926173999993,533.9926173999993,534.0101854999994,535.1801026999983,g,1,1.18380519999846,None,,233364,001,2024-09-13_14h00.00.208,friday16,2024.1.5,None,2024-09-13 14h00.10.081908 +0530,
BLUE,blue,C,b,40,2,322,3,535.2079547999983,,,,,535.1858507999987,535.2079547999983,535.6940920999987,535.6940920999987,535.709727899999,536.4627631999992,b,1,0.7512231000000611,None,,233364,001,2024-09-13_14h00.00.208,friday16,2024.1.5,None,2024-09-13 14h00.10.081908 +0530,
GREEN,green,I,g,40,3,323,7,536.4911096999986,,,,,536.4686132999996,536.4911096999986,536.9768779999995,536.9768779999995,536.9932640999996,537.8456219999989,g,1,0.8622950999997556,None,,233364,001,2024-09-13_14h00.00.208,friday16,2024.1.5,None,2024-09-13 14h00.10.081908 +0530,
RED,blue,I,b,40,4,324,1,537.8735813999992,,,,,537.8507261999985,537.8735813999992,538.359752299999,538.359752299999,538.3759725999989,539.6800267999988,b,1,1.3076596000009886,None,,233364,001,2024-09-13_14h00.00.208,friday16,2024.1.5,None,2024-09-13 14h00.10.081908 +0530,
BLUE,red,I,r,40,5,325,2,539.7075018999985,,,,,539.685787299999,539.7075018999985,540.1928389999994,540.1928389999994,540.2103232999998,540.8632713999996,r,1,0.6516962000005151,None,,233364,001,2024-09-13_14h00.00.208,friday16,2024.1.5,None,2024-09-13 14h00.10.081908 +0530,
RED,red,C,r,40,6,326,0,540.8902810999989,,,,,540.8690372000001,540.8902810999989,541.3905984999983,541.3905984999983,541.410246899999,541.9460063999995,r,1,0.5491385999994236,None,,233364,001,2024-09-13_14h00.00.208,friday16,2024.1.5,None,2024-09-13 14h00.10.081908 +0530,
GREEN,yellow,I,y,40,7,327,6,541.9748133999983,,,,,541.9518018999988,541.9748133999983,542.4598868999983,542.4598868999983,542.4761382999986,543.6634638999985,y,1,1.189419000000271,None,,233364,001,2024-09-13_14h00.00.208,friday16,2024.1.5,None,2024-09-13 14h00.10.081908 +0530,
RED,red,C,r,41,0,328,0,543.691088399999,,,,,543.6696868999989,543.691088399999,544.1763645999999,544.1763645999999,544.1935861999991,544.7469586999996,r,1,0.5642499000005046,None,,233364,001,2024-09-13_14h00.00.208,friday16,2024.1.5,None,2024-09-13 14h00.10.081908 +0530,
YELLOW,yellow,C,y,41,1,329,4,544.7741945999987,,,,,544.7529840999996,544.7741945999987,545.2593696999993,545.2593696999993,545.276892599999,545.7475698999988,r,0,0.4824989999997342,None,,233364,001,2024-09-13_14h00.00.208,friday16,2024.1.5,None,2024-09-13 14h00.10.081908 +0530,
YELLOW,green,I,g,41,2,330,5,545.7743244999983,,,,,545.7533131,545.7743244999983,546.2591892,546.2591892,546.2761835000001,547.5800072999991,g,1,1.3078301000005013,None,,233364,001,2024-09-13_14h00.00.208,friday16,2024.1.5,None,2024-09-13 14h00.10.081908 +0530,
BLUE,blue,C,b,41,3,331,3,547.6075359999995,,,,,547.5857880999993,547.6075359999995,548.0929700999986,548.0929700999986,548.1097678999995,549.0636132999989,b,1,0.955181100000118,None,,233364,001,2024-09-13_14h00.00.208,friday16,2024.1.5,None,2024-09-13 14h00.10.081908 +0530,
RED,blue,I,b,41,4,332,1,549.090773599999,,,,,549.069507799999,549.090773599999,549.5763401999993,549.5763401999993,549.5927155999998,550.5626063,b,1,0.9740968000005523,None,,233364,001,2024-09-13_14h00.00.208,friday16,2024.1.5,None,2024-09-13 14h00.10.081908 +0530,
BLUE,red,I,r,41,5,333,2,550.5906841999986,,,,,550.5685199999989,550.5906841999986,551.0762495999988,551.0762495999988,551.0935665999987,551.6624877999984,r,1,0.5757362000003923,None,,233364,001,2024-09-13_14h00.00.208,friday16,2024.1.5,None,2024-09-13 14h00.10.081908 +0530,
GREEN,yellow,I,y,41,6,334,6,551.6908661999987,,,,,551.6685222999986,551.6908661999987,552.1767167999988,552.1767167999988,552.1930802999996,553.6958940999994,y,1,1.5034017999987555,None,,233364,001,2024-09-13_14h00.00.208,friday16,2024.1.5,None,2024-09-13 14h00.10.081908 +0530,
GREEN,green,I,g,41,7,335,7,553.7244373999984,,,,,553.7016866999984,553.7244373999984,554.2093979000001,554.2093979000001,554.2269846999989,554.7132437,g,1,0.4855521999998018,None,,233364,001,2024-09-13_14h00.00.208,friday16,2024.1.5,None,2024-09-13 14h00.10.081908 +0530,
YELLOW,green,I,g,42,0,336,5,554.7402520999985,,,,,554.7192574000001,554.7402520999985,555.2408300999996,555.2408300999996,555.2596747999996,555.8132104999986,g,1,0.5692616000014823,None,,233364,001,2024-09-13_14h00.00.208,friday16,2024.1.5,None,2024-09-13 14h00.10.081908 +0530,
RED,blue,I,b,42,1,337,1,555.8409351999999,,,,,555.8192980999993,555.8409351999999,556.3413114999985,556.3413114999985,556.3599856000001,558.5966224999993,b,1,2.2438013999999384,None,,233364,001,2024-09-13_14h00.00.208,friday16,2024.1.5,None,2024-09-13 14h00.10.081908 +0530,
GREEN,yellow,I,y,42,2,338,6,558.6241360999993,,,,,558.6024414999993,558.6241360999993,559.1093592999987,559.1093592999987,559.1261907999997,559.8639461999992,r,0,0.7512103999997635,None,,233364,001,2024-09-13_14h00.00.208,friday16,2024.1.5,None,2024-09-13 14h00.10.081908 +0530,
RED,red,C,r,42,3,339,0,559.8907927,,,,,559.8699922999986,559.8907927,560.3916011000001,560.3916011000001,560.4105491999999,561.0128771,r,1,0.6173251000000164,None,,233364,001,2024-09-13_14h00.00.208,friday16,2024.1.5,None,2024-09-13 14h00.10.081908 +0530,
GREEN,green,I,g,42,4,340,7,561.0570622999985,,,,,561.0195938999987,561.0570622999985,561.5258316999989,561.5258316999989,561.5589044999997,562.3291652999997,g,1,0.7927694999998494,None,,233364,001,2024-09-13_14h00.00.208,friday16,2024.1.5,None,2024-09-13 14h00.10.081908 +0530,
YELLOW,yellow,C,y,42,5,341,4,562.357286299999,,,,,562.3349437999987,562.357286299999,562.8579624999984,562.8579624999984,562.8761323999988,563.3961024,y,1,0.5308624999997846,None,,233364,001,2024-09-13_14h00.00.208,friday16,2024.1.5,None,2024-09-13 14h00.10.081908 +0530,
BLUE,red,I,r,42,6,342,2,563.4244472999999,,,,,563.4019193999993,563.4244472999999,563.9113819999984,563.9113819999984,563.9259463999988,565.4621213999999,r,1,1.532682200000636,None,,233364,001,2024-09-13_14h00.00.208,friday16,2024.1.5,None,2024-09-13 14h00.10.081908 +0530,
BLUE,blue,C,b,42,7,343,3,565.4911562999987,,,,,565.4704246999991,565.4911562999987,565.9761093999987,565.9761093999987,565.9927871,567.3800495999985,b,1,1.395556999999826,None,,233364,001,2024-09-13_14h00.00.208,friday16,2024.1.5,None,2024-09-13 14h00.10.081908 +0530,
BLUE,blue,C,b,43,0,344,3,567.4079985999997,,,,,567.3858443999998,567.4079985999997,567.8931404999985,567.8931404999985,567.9105473999989,568.5295365999991,b,1,0.6293960000002699,None,,233364,001,2024-09-13_14h00.00.208,friday16,2024.1.5,None,2024-09-13 14h00.10.081908 +0530,
RED,red,C,r,43,1,345,0,568.5573523999992,,,,,568.5357544999988,568.5573523999992,569.0575104,569.0575104,569.0772251999988,569.9300401,r,1,0.8600507000010111,None,,233364,001,2024-09-13_14h00.00.208,friday16,2024.1.5,None,2024-09-13 14h00.10.081908 +0530,
YELLOW,yellow,C,y,43,2,346,4,569.9572877999999,,,,,569.9360049999996,569.9572877999999,570.4579612999987,570.4579612999987,570.4768538999997,571.6629699999994,y,1,1.1884936000005837,None,,233364,001,2024-09-13_14h00.00.208,friday16,2024.1.5,None,2024-09-13 14h00.10.081908 +0530,
GREEN,yellow,I,y,43,3,347,6,571.6906512999994,,,,,571.6690196999989,571.6906512999994,572.1763984999998,572.1763984999998,572.1936732999984,572.8967242999988,g,0,0.7024688000001333,None,,233364,001,2024-09-13_14h00.00.208,friday16,2024.1.5,None,2024-09-13 14h00.10.081908 +0530,
BLUE,red,I,r,43,4,348,2,572.924357599999,,,,,572.9025046999996,572.924357599999,573.4118641999994,573.4118641999994,573.4259958999992,574.380212,b,0,0.9645860000000539,None,,233364,001,2024-09-13_14h00.00.208,friday16,2024.1.5,None,2024-09-13 14h00.10.081908 +0530,
RED,blue,I,b,43,5,349,1,574.4080013999992,,,,,574.3862864999992,574.4080013999992,574.8933576999989,574.8933576999989,574.9095013999995,576.5961342999999,b,1,1.6967619999995804,None,,233364,001,2024-09-13_14h00.00.208,friday16,2024.1.5,None,2024-09-13 14h00.10.081908 +0530,
YELLOW,green,I,g,43,6,350,5,576.6242904999999,,,,,576.6020802999992,576.6242904999999,577.1102076999996,577.1102076999996,577.1260919999986,578.6624262999994,y,0,1.540072699999655,None,,233364,001,2024-09-13_14h00.00.208,friday16,2024.1.5,None,2024-09-13 14h00.10.081908 +0530,
GREEN,green,I,g,43,7,351,7,578.6908402999998,,,,,578.6682274999985,578.6908402999998,579.1764220999994,579.1764220999994,579.1937548999995,580.2632245999994,g,1,1.0815759000015532,None,,233364,001,2024-09-13_14h00.00.208,friday16,2024.1.5,None,2024-09-13 14h00.10.081908 +0530,
YELLOW,yellow,C,y,44,0,352,4,580.2904858999991,,,,,580.268349599999,580.2904858999991,580.7764400999986,580.7764400999986,580.7937503999983,582.4143184999994,y,1,1.6290597000006528,None,,233364,001,2024-09-13_14h00.00.208,friday16,2024.1.5,None,2024-09-13 14h00.10.081908 +0530,
RED,blue,I,b,44,1,353,1,582.4405438999984,,,,,582.4203362999997,582.4405438999984,582.9263285999987,582.9263285999987,582.9429571000001,585.0795297999994,b,1,2.141866600000867,None,,233364,001,2024-09-13_14h00.00.208,friday16,2024.1.5,None,2024-09-13 14h00.10.081908 +0530,
GREEN,yellow,I,y,44,2,354,6,585.1075005999992,,,,,585.0860077999987,585.1075005999992,585.6075932999993,585.6075932999993,585.6261626999985,588.8299312999989,y,1,3.210875400000077,None,,233364,001,2024-09-13_14h00.00.208,friday16,2024.1.5,None,2024-09-13 14h00.10.081908 +0530,
YELLOW,green,I,g,44,3,355,5,588.8571201999985,,,,,588.8357081999984,588.8571201999985,589.343343999999,589.343343999999,589.3596989999987,590.2133798999985,g,1,0.860127800000555,None,,233364,001,2024-09-13_14h00.00.208,friday16,2024.1.5,None,2024-09-13 14h00.10.081908 +0530,
BLUE,red,I,r,44,4,356,2,590.2571845999992,,,,,590.2193708999985,590.2571845999992,590.7260649,590.7260649,590.7770800999988,591.879668399999,r,1,1.1457761000001483,None,,233364,001,2024-09-13_14h00.00.208,friday16,2024.1.5,None,2024-09-13 14h00.10.081908 +0530,
